t,ax,ay,az
1708857503931759,-0.0175781,-0.993652,0.0722656
1708857503935705,-0.0126953,-0.993652,0.0722656
1708857503939651,-0.013916,-0.984863,0.0683594
1708857503943585,-0.013916,-0.990723,0.0715332
1708857503947526,-0.0187988,-0.990723,0.0715332
1708857503951457,-0.00805664,-0.987061,0.0686035
1708857503955432,-0.00805664,-0.991211,0.0754395
1708857503959349,-0.013916,-0.991211,0.0754395
1708857503963271,-0.0141602,-0.99292,0.0666504
1708857503967225,-0.0141602,-0.990967,0.0686035
1708857503971176,-0.0131836,-0.990967,0.0686035
1708857503975144,-0.0119629,-0.986328,0.0703125
1708857503979086,-0.0119629,-0.986328,0.0708008
1708857503983000,-0.0192871,-0.988525,0.0708008
1708857503986963,-0.017334,-0.991699,0.0637207
1708857503990916,-0.017334,-0.991699,0.0649414
1708857503994843,-0.0161133,-0.98999,0.0649414
1708857503998786,-0.0144043,-0.987793,0.0725098
1708857504002724,-0.0144043,-0.987793,0.0656738
1708857504006754,-0.0180664,-1.00635,0.0656738
1708857504010656,-0.0141602,-0.989502,0.0678711
1708857504014632,-0.0141602,-0.989502,0.0683594
1708857504018539,-0.0126953,-1.00537,0.0683594
1708857504022482,-0.0134277,-0.985107,0.0690918
1708857504026410,-0.0134277,-0.985107,0.0737305
1708857504030357,-0.0131836,-0.98999,0.0737305
1708857504034295,-0.0185547,-1.00806,0.0622559
1708857504038211,-0.0185547,-1.00806,0.00488281
1708857504042138,-0.0124512,-0.960205,0.0673828
1708857504046100,-0.0317383,-1.05225,0.0717773
1708857504050005,-0.0317383,-1.05225,0.0717773
1708857504053969,-0.0168457,-0.967529,0.0720215
1708857504057890,-0.0168457,-1.06885,0.0666504
1708857504061824,-0.0231934,-1.06885,0.0666504
1708857504065763,-0.00537109,-0.965088,0.0727539
1708857504069724,-0.00537109,-1.02197,0.074707
1708857504073599,-0.00048828,-1.02197,0.074707
1708857504077528,-0.0241699,-1.05005,0.0527344
1708857504081502,-0.0241699,-0.974121,0.0847168
1708857504085418,-0.0012207,-0.974121,0.0847168
1708857504089371,-0.0246582,-1.09424,0.0559082
1708857504093248,-0.0246582,-1.08521,0.0654297
1708857504097183,-0.00439453,-0.897705,0.0654297
1708857504101126,-0.0131836,-1.09985,0.0751953
1708857504105055,-0.0131836,-1.0752,0.0588379
1708857504109004,-0.0361328,-0.950195,0.0588379
1708857504112936,0.00927734,-0.990723,0.0944824
1708857504116899,0.00927734,-1,0.050293
1708857504120831,-0.0319824,-1.0625,0.050293
1708857504124762,-0.0197754,-0.938477,0.0610352
1708857504128716,-0.0197754,-0.938477,0.0834961
1708857504132651,-0.0239258,-1.16357,0.0834961
1708857504136593,-0.0366211,-0.991455,0.0571289
1708857504140525,-0.0366211,-0.991455,0.0722656
1708857504144439,0.00292969,-1.03784,0.0722656
1708857504148380,-0.0100098,-0.980225,0.050293
1708857504152301,-0.0100098,-0.980225,0.020752
1708857504156271,0.017334,-0.91748,0.083252
1708857504160158,0.0424805,-1.02979,0.0727539
1708857504164086,-0.0200195,-1.02979,0.122314
1708857504168025,-0.0197754,-0.846436,0.0598144
1708857504171951,-0.00195313,-1.15063,0.0517578
1708857504175882,-0.0644531,-1.15063,0.0517578
1708857504179806,-0.0334473,-0.836914,0.0678711
1708857504183760,-0.0361328,-1.04663,0.0961914
1708857504187672,-0.0361328,-1.04663,0.0961914
1708857504191585,-0.0463867,-1.0083,0.0510254
1708857504195554,-0.0463867,-0.929199,0.0874023
1708857504199468,-0.0158691,-0.929199,0.0874023
1708857504203404,-0.0444336,-1.20801,0.0512695
1708857504207330,-0.0444336,-0.931641,0.0805664
1708857504211263,0.0202637,-0.931641,0.0805664
1708857504215207,-0.034668,-1.22412,0.0371094
1708857504219129,-0.034668,-1.22632,0.0725098
1708857504223070,0.00097656,-1.10132,0.0725098
1708857504227068,0.0297852,-1.03198,0.101807
1708857504230966,0.0297852,-1.01343,0.032959
1708857504234948,-0.0476074,-1.20093,0.032959
1708857504238856,0.00878906,-0.912842,0.0864258
1708857504242788,0.00878906,-0.898682,0.0629883
1708857504246728,-0.019043,-1.14868,0.0629883
1708857504250674,-0.0437012,-1.01147,0.0505371
1708857504254581,-0.0437012,-1.01147,0.098877
1708857504258517,-0.00366211,-0.95459,0.098877
1708857504262446,-0.0339356,-1.09302,0.0539551
1708857504266375,-0.0339356,-1.09302,0.0737305
1708857504270326,-0.0114746,-0.893799,0.0737305
1708857504274276,-0.0505371,-1.11572,0.0512695
1708857504278174,-0.0505371,-1.11572,0.0927734
1708857504282111,-0.0202637,-0.995117,0.0927734
1708857504286035,-0.0227051,-1.01416,0.0756836
1708857504289973,-0.0227051,-1.01416,0.095459
1708857504293940,-0.0622559,-1.14575,0.032959
1708857504297865,-0.0166016,-0.992432,0.0871582
1708857504301786,-0.0166016,-0.992432,0.0710449
1708857504305729,-0.0180664,-1.04028,0.0710449
1708857504309679,-0.0285645,-1.03906,0.0683594
1708857504313566,-0.0285645,-1.03906,0.0683594
1708857504317507,0.0117188,-0.869629,0.0751953
1708857504321436,0.0334473,-1.0498,0.0556641
1708857504325374,-0.0290527,-1.0498,0.0556641
1708857504329316,-0.0266113,-0.866943,0.081543
1708857504333239,-0.0266113,-1.06128,0.0632324
1708857504337265,-0.0861816,-1.06128,0.0632324
1708857504341179,-0.0844727,-1.07422,0.0881348
1708857504345110,-0.0844727,-1.06567,0.0583496
1708857504349055,-0.0791016,-1.06567,0.0583496
1708857504352980,-0.0742188,-1.21313,0.0627441
1708857504356943,-0.0742188,-1.19434,0.0751953
1708857504360874,-0.0141602,-0.944336,0.0751953
1708857504364799,-0.00561523,-1.19287,0.0646973
1708857504368700,-0.00561523,-1.198,0.0678711
1708857504372628,0.0012207,-0.947998,0.0678711
1708857504376596,-0.017334,-1.06299,0.0693359
1708857504380521,-0.017334,-1.08301,0.0529785
1708857504384435,-0.078125,-1.14551,0.0529785
1708857504388384,-0.0266113,-0.940186,0.097168
1708857504392309,-0.0266113,-0.940186,0.0307617
1708857504396233,-0.0637207,-1.12573,0.0307617
1708857504400183,-0.046875,-0.876221,0.0686035
1708857504404091,-0.046875,-0.876221,0.0754395
1708857504408024,-0.0478516,-1.05176,0.0754395
1708857504411963,-0.0522461,-1.10083,0.0664062
1708857504415864,-0.0522461,-1.10083,0.0695801
1708857504419823,-0.050293,-0.980469,0.0695801
1708857504423754,-0.00415039,-1.08813,0.0822754
1708857504427663,-0.00415039,-1.08813,0.0664062
1708857504431614,-0.0378418,-1.01538,0.0664062
1708857504435519,-0.0322266,-1.04248,0.0734863
1708857504439440,-0.0322266,-1.04248,0.0749512
1708857504443376,-0.0437012,-1.00366,0.0749512
1708857504447370,-0.00732422,-0.938721,0.0563965
1708857504451359,-0.0698242,-0.938721,0.0563965
1708857504455241,-0.0544434,-1.05029,0.0522461
1708857504459166,-0.0544434,-1.03271,0.0859375
1708857504463096,-0.0786133,-1.03271,0.0859375
1708857504467064,-0.0727539,-1.07666,0.0683594
1708857504470992,-0.0727539,-1.18677,0.0397949
1708857504474929,-0.108643,-1.18677,0.0397949
1708857504478881,-0.0102539,-0.994629,0.0961914
1708857504482839,-0.0102539,-1.18579,0.0256348
1708857504486767,-0.0532227,-1.18579,0.0256348
1708857504490743,-0.0266113,-0.966064,0.0932617
1708857504494659,-0.0266113,-0.938477,0.083252
1708857504498550,-0.0283203,-1.12598,0.083252
1708857504502494,-0.102539,-1.10718,0.0483398
1708857504506407,-0.102539,-1.12329,0.0825195
1708857504510343,-0.0617676,-0.998291,0.0825195
1708857504514355,-0.103271,-1.15967,0.0297852
1708857504518348,-0.103271,-1.18628,0.088623
1708857504522293,-0.0793457,-0.873779,0.088623
1708857504526239,-0.0671387,-1.02759,0.102539
1708857504530166,-0.0671387,-1.02051,0.0539551
1708857504534115,-0.10498,-1.02051,0.0539551
1708857504538033,-0.0710449,-0.813721,0.0754395
1708857504541952,-0.0710449,-0.813721,0.0625
1708857504545858,-0.0703125,-1.07812,0.0625
1708857504549810,-0.0742188,-0.839844,0.0661621
1708857504553755,-0.0742188,-0.839844,0.0668945
1708857504557727,-0.107422,-1.11499,0.0668945
1708857504561633,-0.129395,-1.06763,0.059082
1708857504565567,-0.129395,-1.06763,0.012207
1708857504569511,-0.105957,-0.970459,0.074707
1708857504573447,-0.0861816,-1.17969,0.0612793
1708857504577406,-0.0861816,-1.17969,0.0170898
1708857504581349,-0.0666504,-0.874512,0.0795898
1708857504585282,-0.0742188,-1.11865,0.0668945
1708857504589220,-0.0742188,-1.11865,0.076416
1708857504593138,-0.103027,-1.11328,0.076416
1708857504597073,-0.107422,-0.958008,0.109375
1708857504601030,-0.0449219,-0.958008,0.109375
1708857504604928,-0.0935059,-1.0437,0.0383301
1708857504608875,-0.0935059,-0.894043,0.0612793
1708857504612809,-0.115723,-0.894043,0.0612793
1708857504616770,-0.0888672,-1.07422,0.095459
1708857504620755,-0.0888672,-1.17676,0.0473633
1708857504624732,-0.172607,-1.17676,0.0473633
1708857504628663,-0.143555,-1.06177,0.0517578
1708857504632639,-0.143555,-1.13721,0.0646973
1708857504636558,-0.0791016,-1.13721,0.0646973
1708857504640479,-0.0759277,-0.994385,0.0671387
1708857504644454,-0.0759277,-1.04785,0.0874023
1708857504648356,-0.0656738,-1.04785,0.0874023
1708857504652332,-0.0695801,-1.07788,0.0927734
1708857504656247,-0.0695801,-1.09424,0.0925293
1708857504660212,-0.0644531,-0.906738,0.0925293
1708857504664124,-0.157471,-1.14648,0.0336914
1708857504668059,-0.157471,-1.13477,0.0915527
1708857504671988,-0.134277,-1.07227,0.0915527
1708857504675926,-0.185059,-1.21045,0.0612793
1708857504679886,-0.185059,-1.21045,0.0681152
1708857504683780,-0.123779,-1.15112,0.0681152
1708857504687731,-0.0959473,-0.881348,0.0563965
1708857504691679,-0.0959473,-0.881348,0.0612793
1708857504695635,-0.0756836,-1.02637,0.0612793
1708857504699559,-0.0834961,-0.820068,0.0583496
1708857504703491,-0.0834961,-0.820068,0.0698242
1708857504707460,-0.132568,-0.942383,0.0698242
1708857504711371,-0.171387,-1.0603,0.0739746
1708857504715296,-0.171387,-1.0603,0.0710449
1708857504719242,-0.195557,-0.983154,0.0710449
1708857504723169,-0.239258,-1.24854,0.0559082
1708857504727097,-0.176758,-1.24854,0.0556641
1708857504731045,-0.155273,-0.965332,0.0556641
1708857504735054,-0.141113,-0.973877,0.107422
1708857504739005,-0.0786133,-0.973877,0.122559
1708857504742969,-0.145264,-1.04541,0.0600586
1708857504746890,-0.158936,-0.934814,0.109863
1708857504750816,-0.0964355,-0.934814,0.109863
1708857504754725,-0.204346,-1.21704,0.0212402
1708857504758666,-0.234375,-0.985352,0.0429688
1708857504762616,-0.234375,-0.985352,0.0429688
1708857504766537,-0.177246,-1.21143,0.0837402
1708857504770476,-0.177246,-1.00854,0.0246582
1708857504774405,-0.217529,-1.00854,0.0246582
1708857504778360,-0.0588379,-0.810547,0.125244
1708857504782289,-0.0588379,-1.03027,0.0478516
1708857504786201,-0.143311,-1.03027,0.0478516
1708857504790141,-0.181641,-0.908936,0.0524902
1708857504794127,-0.181641,-0.90918,0.0839844
1708857504798038,-0.161377,-1.03418,0.0839844
1708857504801977,-0.246826,-1.12476,0.0593262
1708857504805918,-0.246826,-1.11548,0.0996094
1708857504809867,-0.184082,-0.927979,0.0996094
1708857504813836,-0.166504,-1.1189,0.0876465
1708857504817740,-0.166504,-1.10059,0.0524902
1708857504821707,-0.161377,-0.788086,0.0524902
1708857504825628,-0.147949,-1.02124,0.0510254
1708857504829552,-0.147949,-1.02124,0.0595703
1708857504833443,-0.217773,-1.00415,0.0595703
1708857504837375,-0.206543,-1.02271,0.0874023
1708857504841310,-0.206543,-1.02271,0.0378418
1708857504845306,-0.255615,-1.16113,0.0378418
1708857504849246,-0.189941,-0.932861,0.0793457
1708857504853193,-0.189941,-0.932861,0.0424805
1708857504857102,-0.168213,-1.02319,0.0424805
1708857504861058,-0.173828,-0.949463,0.0749512
1708857504865043,-0.173828,-0.949463,0.121338
1708857504868958,-0.173096,-0.925537,0.121338
1708857504872902,-0.160645,-1.32007,0.0520019
1708857504876805,-0.285645,-1.32007,0.0183105
1708857504880720,-0.227295,-1.00122,0.0808105
1708857504884722,-0.205078,-1.19556,0.0546875
1708857504888619,-0.205078,-1.19556,0.0161133
1708857504892550,-0.197266,-0.983887,0.0161133
1708857504896474,-0.231201,-0.887207,0.141846
1708857504900396,-0.106201,-0.887207,0.141846
1708857504904351,-0.22168,-1.21729,0.0690918
1708857504908303,-0.22168,-1.11157,0.0285645
1708857504912226,-0.276367,-1.11157,0.0285645
1708857504916134,-0.222656,-1.12524,0.0454102
1708857504920073,-0.222656,-0.926758,0.0405273
1708857504924011,-0.236328,-0.926758,0.0405273
1708857504927941,-0.147217,-0.786621,0.101074
1708857504931924,-0.147217,-0.775635,0.0788574
1708857504935861,-0.239502,-0.963135,0.0788574
1708857504939785,-0.313477,-1.07202,0.0715332
1708857504943693,-0.313477,-1.08838,0.0710449
1708857504947636,-0.262939,-1.08838,0.0710449
1708857504951569,-0.239014,-0.905762,0.0722656
1708857504955577,-0.239014,-0.892334,0.0566406
1708857504959564,-0.198975,-0.767334,0.0566406
1708857504963471,-0.26123,-0.993408,0.0617676
1708857504967403,-0.26123,-0.97583,0.112061
1708857504971352,-0.285889,-0.97583,0.112061
1708857504975268,-0.291016,-1.14551,0.0541992
1708857504979200,-0.291016,-1.14551,0.0229492
1708857504983167,-0.320801,-0.895264,0.0229492
1708857504987089,-0.206055,-0.866455,0.0771484
1708857504991031,-0.206055,-0.866455,0.0239258
1708857504994965,-0.303955,-1.00269,0.0239258
1708857504998876,-0.320801,-1.00732,0.0991211
1708857505002797,-0.320801,-1.00732,0.0932617
1708857505006736,-0.290771,-1.15039,0.0932617
1708857505010690,-0.279541,-0.906738,0.0368652
1708857505014615,-0.279541,-0.906738,0.0378418
1708857505018561,-0.252197,-0.818848,0.0378418
1708857505022502,-0.30249,-0.953857,0.111816
1708857505026456,-0.23999,-0.953857,0.105469
1708857505030424,-0.376465,-1.02466,0.105469
1708857505034315,-0.415527,-1.25195,0.065918
1708857505038292,-0.353027,-1.25195,0.065918
1708857505042212,-0.331543,-0.984863,0.0297852
1708857505046149,-0.324707,-0.911377,0.0285645
1708857505050099,-0.262207,-0.911377,0.0285645
1708857505054012,-0.308838,-1.07837,0.0805664
1708857505057988,-0.308838,-0.986816,0.149902
1708857505061926,-0.27002,-0.986816,0.149902
1708857505065944,-0.27417,-1.04761,0.0478516
1708857505069878,-0.27417,-0.852783,-0.0270996
1708857505073816,-0.354248,-0.852783,-0.0270996
1708857505077744,-0.213623,-0.799316,0.106201
1708857505081670,-0.213623,-0.999023,0.060791
1708857505085633,-0.37793,-0.999023,0.060791
1708857505089561,-0.375,-0.873779,0.121582
1708857505093488,-0.375,-0.814209,0.0952148
1708857505097443,-0.30835,-0.939209,0.0952148
1708857505101386,-0.372314,-0.810303,0.00146484
1708857505105307,-0.372314,-0.773193,0.0839844
1708857505109249,-0.34375,-0.960693,0.0839844
1708857505113181,-0.358154,-1.17627,0.105957
1708857505117117,-0.358154,-1.17261,0.101807
1708857505121065,-0.314697,-0.922607,0.101807
1708857505125010,-0.309082,-0.998535,0.0256348
1708857505128932,-0.309082,-0.998535,0.017334
1708857505132878,-0.341553,-0.817871,0.017334
1708857505136814,-0.329834,-1.01245,0.108643
1708857505140734,-0.329834,-1.01245,0.0415039
1708857505144654,-0.411621,-1.0542,0.0415039
1708857505148588,-0.38208,-0.823242,0.100342
1708857505152525,-0.38208,-0.823242,0.11792
1708857505156455,-0.340576,-0.844971,0.0554199
1708857505160402,-0.457031,-0.903564,0.0124512
1708857505164308,-0.457031,-0.903564,0.00170898
1708857505168267,-0.398926,-0.954834,0.126709
1708857505172203,-0.424561,-1.06519,0.0839844
1708857505176203,-0.424561,-1.06519,0.0695801
1708857505180178,-0.41626,-0.831299,0.0695801
1708857505184111,-0.39502,-1.104,0.0690918
1708857505188024,-0.39502,-1.104,0.0690918
1708857505191972,-0.404541,-0.989258,0.0654297
1708857505195900,-0.430176,-0.819824,0.100098
1708857505199842,-0.305176,-0.819824,0.100098
1708857505203810,-0.408936,-0.968018,0.0288086
1708857505207758,-0.408936,-0.758057,0.127197
1708857505211701,-0.366455,-0.758057,0.127197
1708857505215636,-0.413086,-1.07983,0.0197754
1708857505219581,-0.413086,-0.796387,-0.0170898
1708857505223539,-0.487549,-0.796387,-0.0170898
1708857505227498,-0.316895,-0.677002,0.148926
1708857505231443,-0.316895,-0.828369,0.0825195
1708857505235381,-0.443848,-0.828369,0.0825195
1708857505239317,-0.49707,-0.835938,0.0336914
1708857505243246,-0.49707,-0.854004,0.0556641
1708857505247182,-0.416992,-0.916504,0.0556641
1708857505251116,-0.487061,-0.773438,0.0800781
1708857505255071,-0.487061,-0.78833,0.135254
1708857505259018,-0.356934,-0.78833,0.135254
1708857505262925,-0.57373,-1.08643,0.00170898
1708857505266851,-0.57373,-1.11621,0.14209
1708857505270798,-0.456055,-0.928711,0.14209
1708857505274741,-0.348145,-0.927246,0.0673828
1708857505278688,-0.348145,-0.927246,-0.0395508
1708857505282642,-0.512695,-0.783936,-0.0395508
1708857505286663,-0.389893,-0.917725,0.127197
1708857505290622,-0.389893,-0.917725,0.0849609
1708857505294555,-0.4729,-1.07861,0.0849609
1708857505298491,-0.453369,-0.670898,0.0422363
1708857505302442,-0.453369,-0.670898,0.00927734
1708857505306381,-0.452148,-0.754883,0.00927734
1708857505310329,-0.480957,-0.697266,0.108643
1708857505314283,-0.480957,-0.697266,0.115967
1708857505318237,-0.502197,-0.895264,0.115967
1708857505322216,-0.592529,-0.938477,-0.00878906
1708857505326174,-0.592529,-0.938477,-0.0463867
1708857505330099,-0.478516,-0.664551,0.0786133
1708857505334043,-0.454346,-0.781738,0.108887
1708857505337990,-0.454346,-0.781738,0.0791016
1708857505341987,-0.55542,-0.924072,0.0791016
1708857505345997,-0.552246,-0.902588,0.0854492
1708857505349939,-0.489746,-0.902588,0.116211
1708857505353919,-0.548828,-0.989258,0.0537109
1708857505357833,-0.525391,-0.72168,0.0605469
1708857505361811,-0.462891,-0.72168,0.0563965
1708857505365713,-0.561768,-1.13989,-0.00610352
1708857505369644,-0.51416,-0.910889,0.132812
1708857505373568,-0.51416,-0.910889,0.132812
1708857505377536,-0.360107,-0.834229,0.151367
1708857505381464,-0.360107,-0.960449,-0.0839844
1708857505385420,-0.601807,-0.960449,-0.0839844
1708857505389369,-0.527832,-0.857422,0.0754395
1708857505393294,-0.527832,-0.965576,0.137207
1708857505397259,-0.436035,-0.965576,0.137207
1708857505401154,-0.562988,-0.61084,0.060791
1708857505405097,-0.562988,-0.696533,0.103516
1708857505409037,-0.4646,-0.696533,0.103516
1708857505412994,-0.61499,-0.882324,0.00634766
1708857505416928,-0.61499,-0.884766,0.0976562
1708857505420862,-0.569092,-0.697266,0.0976562
1708857505424795,-0.493652,-0.752197,0.113037
1708857505428751,-0.493652,-0.790771,0.0688477
1708857505432698,-0.563721,-0.603271,0.0688477
1708857505436626,-0.567139,-0.79541,0.0402832
1708857505440589,-0.567139,-0.786377,0.0268555
1708857505444525,-0.655273,-0.911377,0.0268555
1708857505448466,-0.524658,-0.574951,0.106201
1708857505452516,-0.524658,-0.574951,0.0273438
1708857505456394,-0.574707,-0.811523,0.0273438
1708857505460314,-0.596191,-0.70166,0.121582
1708857505464245,-0.596191,-0.70166,0.0808105
1708857505468195,-0.528564,-0.800293,0.0808105
1708857505472175,-0.670898,-0.926758,-0.0537109
1708857505476097,-0.670898,-0.926758,0.0947266
1708857505480072,-0.584717,-0.654053,0.0947266
1708857505483979,-0.506592,-0.799805,0.170166
1708857505487934,-0.506592,-0.799805,0.185791
1708857505491883,-0.658936,-0.868164,0.060791
1708857505495818,-0.609375,-0.817871,0.0131836
1708857505499775,-0.609375,-0.817871,0.0371094
1708857505503714,-0.61792,-0.805908,0.0371094
1708857505507666,-0.593506,-0.576904,0.164307
1708857505511582,-0.531006,-0.576904,0.132568
1708857505515512,-0.641602,-1.00684,0.0700684
1708857505519447,-0.67041,-0.801758,0.0234375
1708857505523370,-0.67041,-0.801758,0.0234375
1708857505527299,-0.513672,-0.620605,0.0974121
1708857505531263,-0.513672,-0.724121,-0.0090332
1708857505535199,-0.630859,-0.724121,-0.0090332
1708857505539141,-0.719727,-0.768066,0.048584
1708857505543108,-0.719727,-0.947754,0.154785
1708857505547055,-0.604004,-0.947754,0.154785
1708857505550990,-0.637207,-0.673584,0.0905762
1708857505554912,-0.637207,-0.648682,-0.0270996
1708857505558860,-0.616699,-0.648682,-0.0270996
1708857505562869,-0.658203,-0.85376,0.0266113
1708857505566793,-0.658203,-0.616455,0.212158
1708857505570733,-0.550049,-0.616455,0.212158
1708857505574705,-0.559326,-0.697021,0.11377
1708857505578602,-0.559326,-0.742432,-0.0273438
1708857505582575,-0.685059,-0.679932,-0.0273438
1708857505586511,-0.690918,-0.773438,0.0358887
1708857505590447,-0.690918,-0.771729,0.117432
1708857505594401,-0.662598,-0.771729,0.117432
1708857505598372,-0.634766,-0.527588,0.098877
1708857505602303,-0.634766,-0.546875,0.0253906
1708857505606235,-0.684326,-0.859375,0.0253906
1708857505610221,-0.705566,-0.692627,0.0947266
1708857505614183,-0.705566,-0.692627,0.0717773
1708857505618092,-0.594482,-0.803223,0.0717773
1708857505622014,-0.768066,-0.886963,-0.0520019
1708857505625972,-0.768066,-0.886963,0.0969238
1708857505629914,-0.635498,-0.574707,0.0969238
1708857505633861,-0.572998,-0.730225,0.189697
1708857505637797,-0.572998,-0.730225,0.00341797
1708857505641722,-0.804932,-0.828613,0.00341797
1708857505645678,-0.673828,-0.641602,0.0522461
1708857505649598,-0.673828,-0.641602,0.0617676
1708857505653540,-0.714111,-0.690918,0.0617676
1708857505657460,-0.723633,-0.382324,0.161133
1708857505661421,-0.598633,-0.382324,0.150146
1708857505665373,-0.752686,-0.92627,0.0251465
1708857505669267,-0.805176,-0.713135,0.0383301
1708857505673276,-0.805176,-0.713135,0.0253906
1708857505677221,-0.591553,-0.500488,0.150391
1708857505681146,-0.610352,-0.559814,-0.00463867
1708857505685078,-0.735352,-0.559814,-0.00463867
1708857505689004,-0.738281,-0.648438,0.0625
1708857505692939,-0.738281,-0.716309,0.116211
1708857505696911,-0.663574,-0.716309,0.116211
1708857505700814,-0.705078,-0.428711,0.090332
1708857505704737,-0.705078,-0.547852,0.00561523
1708857505708653,-0.669189,-0.547852,0.00561523
1708857505712604,-0.86377,-0.852539,-0.00708008
1708857505716591,-0.86377,-0.599854,0.192871
1708857505720517,-0.664062,-0.599854,0.192871
1708857505724473,-0.669434,-0.688477,0.0913086
1708857505728395,-0.669434,-0.709717,0.00561523
1708857505732405,-0.807373,-0.709717,0.00561523
1708857505736307,-0.729248,-0.731689,0.0646973
1708857505740263,-0.729248,-0.698975,0.0998535
1708857505744188,-0.689453,-0.761475,0.0998535
1708857505748151,-0.750732,-0.499023,0.0297852
1708857505752080,-0.750732,-0.457275,0.0471191
1708857505756011,-0.752197,-0.707275,0.0471191
1708857505759957,-0.768555,-0.616699,0.136719
1708857505763918,-0.768555,-0.616699,0.0539551
1708857505767843,-0.705322,-0.579346,0.0539551
1708857505771775,-0.804932,-0.612549,-0.0393066
1708857505775748,-0.804932,-0.612549,0.0910645
1708857505779653,-0.722656,-0.467285,0.0910645
1708857505783699,-0.675293,-0.659668,0.18457
1708857505787632,-0.675293,-0.659668,0.0314941
1708857505791595,-0.838867,-0.693115,0.0314941
1708857505795514,-0.724854,-0.67627,0.0397949
1708857505799465,-0.724854,-0.67627,0.079834
1708857505803422,-0.753418,-0.583984,0.079834
1708857505807396,-0.685547,-0.415771,0.149658
1708857505811322,-0.685547,-0.415771,0.165039
1708857505815285,-0.820801,-0.930176,0.0400391
1708857505819212,-0.815186,-0.668457,0.0195312
1708857505823137,-0.877686,-0.668457,0.019043
1708857505827121,-0.654785,-0.537842,0.144043
1708857505831039,-0.669434,-0.559326,0.0239258
1708857505834977,-0.794434,-0.559326,0.0275879
1708857505838912,-0.782227,-0.603271,0.0900879
1708857505842859,-0.761963,-0.725342,0.0483398
1708857505846839,-0.761963,-0.725342,0.0483398
1708857505850762,-0.781738,-0.366943,0.0678711
1708857505854727,-0.755127,-0.484375,0.0397949
1708857505858648,-0.755127,-0.484375,0.0397949
1708857505862601,-0.880371,-0.651855,0.0539551
1708857505866563,-0.880371,-0.395752,0.154053
1708857505870521,-0.72998,-0.395752,0.154053
1708857505874434,-0.772217,-0.440918,0.0175781
1708857505878415,-0.772217,-0.499023,0.0258789
1708857505882324,-0.861816,-0.499023,0.0258789
1708857505886274,-0.82251,-0.630615,0.0888672
1708857505890214,-0.82251,-0.681396,0.123291
1708857505894267,-0.839844,-0.681396,0.123291
1708857505898182,-0.768799,-0.407227,0.0727539
1708857505902139,-0.768799,-0.414551,-0.0214844
1708857505906064,-0.845703,-0.602051,-0.0214844
1708857505910010,-0.865234,-0.491699,0.112549
1708857505913954,-0.865234,-0.438232,0.125977
1708857505917922,-0.743896,-0.563232,0.125977
1708857505921902,-0.887939,-0.460449,-0.0136719
1708857505925788,-0.887939,-0.5,0.0690918
1708857505929721,-0.796387,-0.3125,0.0690918
1708857505933670,-0.797852,-0.477539,0.120605
1708857505937614,-0.797852,-0.493164,0.0722656
1708857505941550,-0.911865,-0.555664,0.0722656
1708857505945500,-0.820557,-0.554932,0.0229492
1708857505949441,-0.820557,-0.554932,0.0378418
1708857505953376,-0.876221,-0.522217,0.0378418
1708857505957329,-0.713135,-0.338867,0.207764
1708857505961261,-0.713135,-0.338867,0.0471191
1708857505965201,-0.893799,-0.753906,0.0471191
1708857505969160,-0.886475,-0.487793,0.0104981
1708857505973152,-0.886475,-0.487793,0.122559
1708857505977055,-0.7229,-0.38501,0.122559
1708857505981008,-0.865967,-0.473145,0.0595703
1708857505984982,-0.865967,-0.473145,0.0415039
1708857505988871,-0.891113,-0.552734,0.104004
1708857505992818,-0.902832,-0.569092,0.0578613
1708857505996753,-0.840332,-0.569092,0.0456543
1708857506000699,-0.844238,-0.333252,0.0456543
1708857506004725,-0.839844,-0.339844,0.0397949
1708857506008666,-0.777344,-0.339844,0.0581055
1708857506012625,-0.95459,-0.627686,0.0581055
1708857506016556,-0.938965,-0.346436,0.155029
1708857506020507,-0.751465,-0.346436,0.155029
1708857506024471,-0.891357,-0.510986,-0.00292969
1708857506028421,-0.905029,-0.419678,0.0187988
1708857506032359,-0.905029,-0.419678,0.0187988
1708857506036298,-0.825928,-0.54126,0.130127
1708857506040240,-0.825928,-0.599121,0.0957031
1708857506044167,-0.866211,-0.599121,0.0957031
1708857506048130,-0.789795,-0.255127,0.045166
1708857506052130,-0.789795,-0.541992,-0.00830078
1708857506056048,-0.910889,-0.541992,-0.00830078
1708857506059968,-0.892334,-0.408936,0.135498
1708857506063913,-0.892334,-0.425049,0.13623
1708857506067853,-0.834961,-0.425049,0.13623
1708857506071811,-0.953613,-0.543945,-0.027832
1708857506075752,-0.953613,-0.507568,0.0551758
1708857506079685,-0.858643,-0.257568,0.0551758
1708857506083646,-0.81665,-0.345459,0.134766
1708857506087576,-0.81665,-0.338867,0.0681152
1708857506091512,-0.95752,-0.526367,0.0681152
1708857506095466,-0.877686,-0.391846,0.0275879
1708857506099450,-0.877686,-0.398682,0.0666504
1708857506103379,-0.930176,-0.398682,0.0666504
1708857506107346,-0.791504,-0.152344,0.163818
1708857506111266,-0.791504,-0.152344,0.0544434
1708857506115263,-0.930664,-0.550293,0.0544434
1708857506119195,-0.928955,-0.340088,0.027832
1708857506123139,-0.928955,-0.340088,0.101562
1708857506127063,-0.810791,-0.256104,0.101562
1708857506130995,-0.910889,-0.391113,0.114502
1708857506134947,-0.910889,-0.391113,0.10498
1708857506138889,-0.901855,-0.36377,0.10498
1708857506142813,-0.911377,-0.462158,0.00415039
1708857506146745,-0.911377,-0.462158,0.0600586
1708857506150689,-0.903076,-0.201172,0.0600586
1708857506154619,-0.834961,-0.399902,0.120117
1708857506158555,-0.834961,-0.399902,0.0637207
1708857506162484,-1,-0.510986,0.0637207
1708857506166404,-0.95166,-0.188721,0.0820312
1708857506170338,-0.82666,-0.188721,0.0944824
1708857506174300,-0.935547,-0.349121,-0.0305176
1708857506178259,-0.911133,-0.133057,0.10376
1708857506182256,-0.911133,-0.133057,0.10376
1708857506186235,-0.884766,-0.393066,0.140381
1708857506190195,-0.929688,-0.376221,0.0322266
1708857506194123,-0.992188,-0.376221,0.0322266
1708857506198072,-0.825684,-0.0732422,0.0537109
1708857506201994,-0.825684,-0.44873,0.026123
1708857506205936,-0.993896,-0.44873,0.026123
1708857506209889,-0.906738,-0.286621,0.192139
1708857506213843,-0.906738,-0.502686,0.0710449
1708857506217787,-0.853027,-0.502686,0.0710449
1708857506221702,-1.04883,-0.451172,-0.026123
1708857506225632,-1.04883,-0.309814,0.117188
1708857506229577,-0.811768,-0.309814,0.117188
1708857506233505,-0.901611,-0.327637,0.115479
1708857506237439,-0.901611,-0.349121,0.0627441
1708857506241364,-0.96582,-0.411621,0.0627441
1708857506245299,-0.898438,-0.362061,0.0158691
1708857506249258,-0.898438,-0.366455,0.0959473
1708857506253204,-0.95752,-0.303955,0.0959473
1708857506257159,-0.828613,-0.0964355,0.140625
1708857506261076,-0.828613,-0.113281,0.00170898
1708857506264991,-1.03857,-0.550781,0.00170898
1708857506268963,-0.925781,-0.250488,0.0231934
1708857506272915,-0.925781,-0.250488,0.106445
1708857506276869,-0.86377,-0.119385,0.106445
1708857506280778,-0.967285,-0.264404,0.148193
1708857506284724,-0.967285,-0.264404,0.0917969
1708857506288670,-0.940674,-0.315674,0.0917969
1708857506292684,-0.951416,-0.276855,-0.0183105
1708857506296656,-0.951416,-0.276855,0.0544434
1708857506300580,-0.930176,-0.00415039,0.0544434
1708857506304529,-0.865234,-0.188965,0.177246
1708857506308443,-0.865234,-0.188965,0.142578
1708857506312384,-1.00781,-0.321777,0.0800781
1708857506316326,-0.881348,-0.0756836,0.0104981
1708857506320278,-0.881348,-0.0756836,0.0429688
1708857506324234,-1.00879,-0.269043,-0.0195312
1708857506328155,-1.00195,-0.0119629,0.206055
1708857506332092,-0.876953,-0.0119629,0.230469
1708857506336068,-0.937744,-0.342285,0.105469
1708857506339981,-0.940186,-0.211914,-0.0490723
1708857506343936,-1.00269,-0.211914,-0.0490723
1708857506347849,-0.880371,-0.017334,0.0327148
1708857506351851,-0.918457,-0.293457,0.0996094
1708857506355766,-0.980957,-0.293457,0.0996094
1708857506359720,-0.917969,-0.163086,0.187988
1708857506363646,-0.917969,-0.273438,-0.00927734
1708857506367603,-0.953857,-0.273438,-0.00927734
1708857506371513,-1,-0.257568,-0.00415039
1708857506375444,-1,-0.050293,0.154297
1708857506379382,-0.884521,-0.050293,0.154297
1708857506383329,-0.98584,-0.335938,0.139404
1708857506387286,-0.98584,-0.229492,0.0363769
1708857506391237,-0.953369,-0.229492,0.0363769
1708857506395200,-0.975342,-0.246094,-0.0288086
1708857506399130,-0.975342,-0.215332,0.157715
1708857506403156,-0.932861,-0.152832,0.157715
1708857506407087,-0.895264,-0.0175781,0.167725
1708857506411047,-0.895264,-0.0012207,-0.0170898
1708857506414932,-1.0542,-0.501221,-0.0170898
1708857506418869,-0.936768,-0.138916,-0.00732422
1708857506422811,-0.936768,-0.133545,0.100342
1708857506426745,-0.915039,-0.00854492,0.100342
1708857506430686,-0.955078,-0.101318,0.197266
1708857506434665,-0.955078,-0.101318,0.0605469
1708857506438558,-0.935791,-0.090332,0.0605469
1708857506442488,-1.01074,-0.273926,-0.0410156
1708857506446422,-1.01074,-0.273926,0.0844727
1708857506450361,-0.946289,0.0573731,0.0844727
1708857506454343,-0.917969,-0.0834961,0.206787
1708857506458282,-0.917969,-0.0834961,0.0820312
1708857506462210,-0.99292,-0.189697,0.0820312
1708857506466164,-0.942871,0.0180664,-0.0478516
1708857506470108,-0.942871,0.0180664,-0.0153809
1708857506474002,-1.01221,-0.247803,0.0471191
1708857506477926,-1.01562,0.043457,0.205811
1708857506481849,-0.890625,0.043457,0.232422
1708857506485816,-0.963379,-0.220703,0.107422
1708857506489748,-0.967773,-0.23877,-0.0639648
1708857506493690,-1.03027,-0.23877,-0.0900879
1708857506497620,-0.917236,0.0554199,0.0349121
1708857506501547,-0.90625,-0.1521,0.162109
1708857506505484,-0.96875,-0.1521,0.162109
1708857506509412,-0.931396,-0.00097656,0.140137
1708857506513419,-0.931396,-0.212402,-0.029541
1708857506517392,-0.995361,-0.212402,-0.029541
1708857506521282,-1.01416,-0.223877,0.0129394
1708857506525193,-1.01416,0.0742188,0.181152
1708857506529135,-0.912842,0.0742188,0.181152
1708857506533085,-0.966064,-0.0666504,0.135986
1708857506537017,-0.966064,-0.199951,-0.00610352
1708857506540936,-0.999023,-0.199951,-0.00610352
1708857506544879,-0.971191,-0.136963,0.013916
1708857506548811,-0.971191,-0.131104,0.164551
1708857506552770,-0.950439,-0.00610352,0.164551
1708857506556757,-0.927734,0.162598,0.151855
1708857506560623,-0.927734,0.178223,-0.00952148
1708857506564556,-1.03247,-0.196777,-0.00952148
1708857506568490,-0.94873,0.00073242,-0.0136719
1708857506572400,-0.94873,0.00073242,0.141846
1708857506576336,-0.932617,0.0493164,0.141846
1708857506580259,-0.984131,0.00024414,0.136475
1708857506584201,-0.984131,0.00024414,0.0244141
1708857506588117,-0.960693,-0.0153809,0.0244141
1708857506592053,-1.02026,-0.188477,-0.0231934
1708857506595979,-1.02026,-0.188477,0.130615
1708857506599906,-0.915527,0.0856934,0.130615
1708857506603843,-0.970947,0.00170898,0.173096
1708857506607768,-0.970947,0.00170898,0.161621
1708857506611702,-0.995605,-0.0385742,0.0366211
1708857506615638,-0.953613,0.0915527,-0.0202637
1708857506619606,-0.953613,0.0915527,-0.032959
1708857506623562,-1.00635,-0.0517578,0.092041
1708857506627526,-1.01562,0.225098,0.204834
1708857506631463,-0.890625,0.225098,0.187988
1708857506635384,-0.984375,0.0090332,0.0629883
1708857506639325,-0.938721,-0.0517578,-0.0417481
1708857506643231,-1.00122,-0.0517578,-0.0417481
1708857506647178,-0.954834,0.105469,0.083252
1708857506651118,-0.954834,-0.0446777,0.181396
1708857506655091,-0.976807,-0.0446777,0.181396
1708857506659027,-0.9021,0.175049,0.0932617
1708857506662949,-0.9021,-0.176025,-0.0385742
1708857506667466,-1.05029,-0.176025,-0.0385742
1708857506670833,-0.95459,-0.00756836,0.0529785
1708857506674782,-0.95459,0.220947,0.174561
1708857506678872,-0.935547,0.220947,0.174561
1708857506682660,-1.00513,0.0388184,0.098877
1708857506686605,-1.00513,0.0319824,-0.0136719
1708857506690523,-0.939941,0.0319824,-0.0136719
1708857506694463,-1.01733,-0.0415039,0.0319824
1708857506698393,-1.01733,-0.0402832,0.157227
1708857506702317,-0.933594,0.209717,0.157227
1708857506706300,-0.94751,0.22583,0.148438
1708857506710192,-0.94751,0.22583,-0.0192871
1708857506714130,-1.02026,-0.153809,-0.0192871
1708857506718060,-0.91748,0.245117,0.0090332
1708857506722023,-0.91748,0.245117,0.160889
1708857506725927,-0.992432,0.00683594,0.160889
1708857506729855,-0.928223,0.183105,0.133057
1708857506733869,-0.928223,0.183105,0.0148926
1708857506737803,-0.997314,0.10791,0.0148926
1708857506741724,-0.993652,-0.130371,-0.00317383
1708857506745648,-0.993652,-0.130371,-0.00170898
1708857506749576,-0.902588,0.177002,0.123291
1708857506753493,-1.01172,0.0537109,0.141357
1708857506757442,-1.01172,0.0537109,0.146484
1708857506761375,-0.935547,0.0876465,0.0214844
1708857506765327,-0.937256,-0.0266113,-0.00048828
1708857506769242,-0.999756,-0.0266113,-0.00146484
1708857506773192,-0.967529,-0.154785,0.123535
1708857506777129,-0.940674,0.291992,0.158691
1708857506781089,-0.878174,0.291992,0.158691
1708857506785055,-1.03809,0.0742188,0.0483398
1708857506788882,-1.03809,0,-0.00585938
1708857506792722,-0.937256,0,-0.00585938
1708857506796670,-0.968262,0.0605469,0.0998535
1708857506800607,-0.968262,0.0917969,0.148438
1708857506804556,-0.945068,0.0917969,0.148438
1708857506808487,-0.934082,0.453369,0.0639648
1708857506812446,-0.934082,0.479736,0.0185547
1708857506816392,-1.01758,-0.0827637,0.0185547
1708857506820288,-0.90332,0.142334,0.0537109
1708857506824203,-0.90332,0.13208,0.14624
1708857506828169,-0.947754,0.44458,0.14624
1708857506832068,-0.978271,0.240234,0.0874023
1708857506836034,-0.978271,0.192627,0.00830078
1708857506839949,-0.931885,0.317627,0.00830078
1708857506843952,-0.977783,0.00390625,0.0732422
1708857506847880,-0.977783,0.00390625,0.0878906
1708857506851807,-0.901367,0.462891,0.0878906
1708857506855774,-0.961426,0.368408,0.141602
1708857506859670,-0.961426,0.368408,0.0280762
1708857506863600,-0.943848,0.050293,0.0280762
1708857506867545,-0.953857,0.342773,0.00732422
1708857506871475,-0.953857,0.342773,0.159424
1708857506875411,-0.989014,0.141357,0.159424
1708857506879356,-0.883301,0.296387,0.118896
1708857506883302,-0.883301,0.296387,0.0878906
1708857506887237,-0.998535,0.220215,0.0253906
1708857506891166,-0.956787,0.0637207,0.00805664
1708857506895123,-0.956787,0.0637207,0.00048828
1708857506899020,-0.9021,0.295166,0.125488
1708857506902985,-0.934814,0.0996094,0.13916
1708857506906929,-0.997314,0.0996094,0.13916
1708857506910854,-0.905762,0.41333,0.00415039
1708857506914742,-0.920654,0.0351562,0.0385742
1708857506918684,-0.983154,0.0351562,0.0385742
1708857506922613,-0.916748,0.12915,0.102783
1708857506926543,-0.916748,0.382812,0.113037
1708857506930489,-0.925537,0.382812,0.113037
1708857506934382,-1.0061,0.336914,0.0651855
1708857506938318,-1.0061,0.0622559,0.0361328
1708857506942218,-0.86499,0.0622559,0.0361328
1708857506946216,-0.957764,0.126465,0.081543
1708857506950109,-0.957764,0.152344,0.119385
1708857506954128,-0.919434,0.277344,0.119385
1708857506958088,-0.940674,0.477539,0.098877
1708857506962053,-0.940674,0.48999,0.0598144
1708857506965974,-0.979736,-0.0725098,0.0598144
1708857506969919,-0.881592,0.244385,0.0078125
1708857506973860,-0.881592,0.200439,0.127197
1708857506977810,-0.965088,0.325439,0.127197
1708857506981746,-0.894043,0.240967,0.142822
1708857506985700,-0.894043,0.240967,0.020752
1708857506989676,-0.938965,0.345947,0.020752
1708857506993623,-0.973877,0.108154,0.0241699
1708857506997538,-0.973877,0.108154,0.0866699
1708857507001491,-0.859863,0.456055,0.0866699
1708857507005421,-0.990479,0.500732,0.145996
1708857507009437,-0.990479,0.500732,0.0654297
1708857507013434,-0.871094,0.263428,0.0654297
1708857507017380,-0.930176,0.48584,-0.0166016
1708857507021356,-0.930176,0.48584,0.12085
1708857507025265,-0.979736,0.236084,0.12085
1708857507029206,-0.81543,0.456543,0.160156
1708857507033187,-0.81543,0.456543,0.179932
1708857507037120,-0.95874,0.303955,0.0549316
1708857507041045,-0.911377,0.189941,0.00366211
1708857507044947,-0.911377,0.189941,0.0373535
1708857507048882,-0.925049,0.390137,0.0998535
1708857507052830,-0.9104,0.115723,0.19873
1708857507056736,-0.9104,0.115723,0.191406
1708857507060659,-0.893311,0.510742,0.00390625
1708857507064589,-0.901611,0.178955,0.0251465
1708857507068532,-0.964111,0.178955,0.0251465
1708857507072461,-0.82666,0.269531,0.108154
1708857507076402,-0.82666,0.504639,0.098877
1708857507080341,-0.93457,0.504639,0.098877
1708857507084281,-0.959717,0.500488,0.0852051
1708857507088247,-0.959717,0.298096,0.0361328
1708857507092158,-0.822998,0.298096,0.0361328
1708857507096132,-0.898682,0.220947,0.0705566
1708857507100065,-0.898682,0.454346,0.0776367
1708857507103981,-0.883545,0.454346,0.0776367
1708857507107930,-0.898926,0.638184,0.129395
1708857507111908,-0.898926,0.626465,0.0844727
1708857507115843,-0.940918,0.188965,0.0844727
1708857507119843,-0.850586,0.442627,-0.00366211
1708857507123822,-0.850586,0.48877,0.095459
1708857507127746,-0.936279,0.42627,0.095459
1708857507131691,-0.839355,0.536377,0.170654
1708857507135616,-0.839355,0.546143,0.104004
1708857507139547,-0.864502,0.421143,0.104004
1708857507143486,-0.948975,0.280762,-0.0224609
1708857507147437,-0.948975,0.288574,0.0124512
1708857507151354,-0.858643,0.663574,0.0124512
1708857507155325,-0.900879,0.348633,0.192139
1708857507159224,-0.900879,0.348633,0.092041
1708857507163190,-0.787598,0.322754,0.092041
1708857507167116,-0.952148,0.366455,-0.0334473
1708857507171038,-0.952148,0.366455,0.088623
1708857507174976,-0.895752,0.280029,0.088623
1708857507178912,-0.822754,0.477295,0.149658
1708857507182863,-0.822754,0.477295,0.177246
1708857507186794,-0.937744,0.459473,0.0522461
1708857507190751,-0.843018,0.289795,0.0258789
1708857507194684,-0.843018,0.289795,0.0361328
1708857507198610,-0.853271,0.495361,0.0986328
1708857507202563,-0.814209,0.357178,0.146729
1708857507206536,-0.876709,0.357178,0.142334
1708857507210454,-0.866699,0.670654,0.017334
1708857507214431,-0.835693,0.36499,0.083252
1708857507218363,-0.898193,0.36499,0.083252
1708857507222290,-0.805176,0.385498,0.0756836
1708857507226208,-0.766357,0.542236,0.0820312
1708857507230198,-0.891357,0.542236,0.0820312
1708857507234142,-0.89917,0.4375,0.105713
1708857507238081,-0.89917,0.430664,0.0593262
1708857507241995,-0.804199,0.430664,0.0593262
1708857507245931,-0.887939,0.333984,0.0324707
1708857507249876,-0.887939,0.553711,0.0610352
1708857507253831,-0.850586,0.553711,0.0610352
1708857507257746,-0.854736,0.684082,0.143799
1708857507261715,-0.854736,0.284668,0.106445
1708857507265623,-0.841309,0.284668,0.106445
1708857507269571,-0.791016,0.456299,-0.00927734
1708857507273492,-0.791016,0.453613,0.0178223
1708857507277414,-0.90625,0.578613,0.0178223
1708857507281379,-0.812744,0.540527,0.18457
1708857507285268,-0.812744,0.516602,0.161865
1708857507289208,-0.779297,0.454102,0.161865
1708857507293149,-0.908691,0.237793,-0.0214844
1708857507297108,-0.908691,0.237793,-0.0285645
1708857507301043,-0.846924,0.671875,-0.0285645
1708857507304966,-0.853027,0.456543,0.1875
1708857507308913,-0.853027,0.456543,0.143311
1708857507312858,-0.719238,0.45874,0.143311
1708857507316783,-0.858643,0.412109,-0.0227051
1708857507320710,-0.858643,0.412109,0.0358887
1708857507324656,-0.831299,0.526611,0.0358887
1708857507328599,-0.776367,0.745361,0.129395
1708857507332535,-0.776367,0.745361,0.13916
1708857507336476,-0.839844,0.568359,0.13916
1708857507340476,-0.7854,0.591797,0.00097656
1708857507344421,-0.7854,0.591797,0.0383301
1708857507348344,-0.820312,0.678711,0.0383301
1708857507352295,-0.849854,0.560547,0.128906
1708857507356231,-0.787354,0.560547,0.148438
1708857507360180,-0.772217,0.859863,0.0859375
1708857507364116,-0.786621,0.427979,0.115479
1708857507368055,-0.849121,0.427979,0.115479
1708857507371991,-0.734131,0.690186,0.0429688
1708857507375933,-0.724365,0.669189,0.0449219
1708857507379876,-0.849365,0.669189,0.0449219
1708857507383830,-0.806152,0.606934,0.124023
1708857507387722,-0.806152,0.560059,0.127441
1708857507391661,-0.712402,0.560059,0.127441
1708857507395573,-0.80249,0.340332,0.0532227
1708857507399480,-0.80249,0.71582,-0.0300293
1708857507403399,-0.798096,0.71582,-0.0300293
1708857507407345,-0.861572,0.702637,0.13623
1708857507411276,-0.861572,0.733643,0.205566
1708857507415195,-0.707031,0.233643,0.205566
1708857507419155,-0.782959,0.537842,-0.0512695
1708857507423119,-0.782959,0.504395,-0.050293
1708857507427075,-0.882812,0.629395,-0.050293
1708857507430993,-0.727051,0.562988,0.187256
1708857507434938,-0.727051,0.562988,0.188965
1708857507438880,-0.733154,0.562988,0.188965
1708857507442823,-0.791504,0.307373,0.0100098
1708857507446771,-0.791504,0.307373,-0.045166
1708857507450760,-0.780762,0.789795,-0.045166
1708857507454717,-0.783447,0.572266,0.183105
1708857507458656,-0.783447,0.572266,0.132812
1708857507462581,-0.697266,0.68042,0.132812
1708857507466506,-0.808105,0.483643,0.0554199
1708857507470451,-0.808105,0.483643,0.0195312
1708857507474396,-0.763428,0.604004,0.0195312
1708857507478291,-0.730957,0.728027,0.0722656
1708857507482259,-0.730957,0.728027,0.12207
1708857507486140,-0.80127,0.626709,0.12207
1708857507490093,-0.798584,0.683838,0.0837402
1708857507494035,-0.736084,0.683838,0.11792
1708857507497981,-0.758057,0.745605,0.0554199
1708857507501932,-0.756348,0.617188,0.0400391
1708857507505850,-0.756348,0.617188,0.0439453
1708857507509773,-0.695801,0.910156,0.0439453
1708857507513723,-0.731689,0.393311,0.168945
1708857507517664,-0.731689,0.393311,0.168945
1708857507521602,-0.638672,0.715088,0.115723
1708857507525552,-0.638672,0.750488,-0.0161133
1708857507529514,-0.793213,0.750488,-0.0161133
1708857507533452,-0.739746,0.649902,0.065918
1708857507537410,-0.739746,0.575195,0.174561
1708857507541310,-0.634277,0.575195,0.174561
1708857507545243,-0.730469,0.444824,0.128174
1708857507549202,-0.730469,0.886475,-0.00878906
1708857507553149,-0.741211,0.886475,-0.00878906
1708857507557071,-0.807129,0.907471,0.00830078
1708857507561074,-0.807129,0.899902,0.173828
1708857507565022,-0.639648,0.524902,0.173828
1708857507568934,-0.640137,0.604004,0.106201
1708857507572865,-0.640137,0.607666,-0.00561523
1708857507576769,-0.739258,0.732666,-0.00561523
1708857507580722,-0.735596,0.878174,0.0400391
1708857507584658,-0.735596,0.878662,0.150635
1708857507588580,-0.633301,0.691162,0.150635
1708857507592521,-0.690186,0.443115,0.0788574
1708857507596458,-0.690186,0.443115,0.045166
1708857507600383,-0.666992,0.762939,0.045166
1708857507604292,-0.711914,0.608887,0.134033
1708857507608281,-0.711914,0.608887,0.0456543
1708857507612175,-0.630615,0.814453,0.0456543
1708857507616103,-0.770508,0.581299,0.0820312
1708857507620048,-0.770508,0.581299,0.0693359
1708857507624001,-0.639404,0.813477,0.131836
1708857507627926,-0.695068,0.865967,0.0324707
1708857507631881,-0.695068,0.865967,0.0385742
1708857507635806,-0.694824,0.782471,0.0385742
1708857507639744,-0.71875,0.66748,0.123047
1708857507643674,-0.59375,0.66748,0.0773926
1708857507647628,-0.647461,0.76001,0.139893
1708857507651584,-0.657959,0.824463,0.0144043
1708857507655504,-0.720459,0.824463,0.0144043
1708857507659449,-0.640381,0.926758,0.0107422
1708857507663380,-0.640381,0.318604,0.14917
1708857507667342,-0.62207,0.318604,0.14917
1708857507671304,-0.591797,0.611328,0.102539
1708857507675290,-0.591797,0.635254,0.0427246
1708857507679180,-0.753174,0.635254,0.0427246
1708857507683144,-0.696045,0.661865,0.0861816
1708857507687082,-0.696045,0.637451,0.0883789
1708857507690996,-0.654785,0.637451,0.0883789
1708857507694936,-0.65918,0.406982,0.125732
1708857507698904,-0.65918,0.906494,0.0219727
1708857507702810,-0.615479,0.906494,0.0219727
1708857507706742,-0.722412,0.832764,0.0793457
1708857507710685,-0.722412,0.862549,0.168945
1708857507714627,-0.511963,0.612549,0.168945
1708857507718566,-0.649658,0.79834,0.0109863
1708857507722505,-0.649658,0.769043,0.064209
1708857507726444,-0.59375,0.956543,0.064209
1708857507730352,-0.592041,1.12134,0.0554199
1708857507734286,-0.592041,1.12134,0.119873
1708857507738216,-0.585693,0.823242,0.119873
1708857507742181,-0.592529,0.707275,0.0568848
1708857507746107,-0.592529,0.707275,0.0576172
1708857507750049,-0.577881,1.0459,0.0576172
1708857507753987,-0.594482,0.74292,0.130127
1708857507757949,-0.594482,0.74292,0.0620117
1708857507761854,-0.490723,0.867432,0.0620117
1708857507765770,-0.642822,0.663818,0.027832
1708857507769696,-0.642822,0.663818,0.00561523
1708857507773609,-0.561035,0.94165,0.130615
1708857507777559,-0.553711,0.937988,0.0930176
1708857507781563,-0.616211,0.937988,0.0627441
1708857507785526,-0.603516,0.791748,0.0627441
1708857507789484,-0.600098,0.753418,0.0656738
1708857507793406,-0.537598,0.753418,0.0644531
1708857507797334,-0.570801,0.814453,0.126953
1708857507801268,-0.580566,0.774414,0.0693359
1708857507805188,-0.580566,0.774414,0.0693359
1708857507809124,-0.596436,0.966309,0.0161133
1708857507813076,-0.596436,0.412598,0.157959
1708857507817032,-0.494873,0.412598,0.157959
1708857507820976,-0.522461,0.784668,0.0742188
1708857507824919,-0.522461,0.836914,0.00878906
1708857507828858,-0.647217,0.836914,0.00878906
1708857507832774,-0.583984,0.833252,0.106201
1708857507836746,-0.583984,0.728027,0.141846
1708857507840650,-0.494873,0.728027,0.141846
1708857507844592,-0.591309,0.657715,0.0537109
1708857507848517,-0.591309,0.644043,0.0205078
1708857507852518,-0.529297,1.01904,0.0205078
1708857507856493,-0.623291,0.927246,0.104736
1708857507860410,-0.623291,0.924072,0.141602
1708857507864347,-0.486572,0.611572,0.141602
1708857507868278,-0.568115,0.765869,0.0571289
1708857507872224,-0.568115,0.780518,0.0688477
1708857507876165,-0.518311,0.843018,0.0688477
1708857507880078,-0.512207,0.976074,0.0595703
1708857507884003,-0.512207,0.976074,0.118164
1708857507887989,-0.483398,0.786865,0.118164
1708857507891893,-0.510498,0.747559,0.0637207
1708857507895827,-0.510498,0.747559,0.0717773
1708857507899753,-0.519531,1.14917,0.0717773
1708857507903695,-0.535889,0.866455,0.0854492
1708857507907640,-0.535889,0.866455,0.0144043
1708857507911596,-0.455811,0.995361,0.0144043
1708857507915497,-0.534912,0.588623,0.100342
1708857507919427,-0.534912,0.588623,0.0876465
1708857507923385,-0.423584,0.810547,0.150146
1708857507927328,-0.417969,0.995117,0.0314941
1708857507931242,-0.542969,0.995117,0.0332031
1708857507935154,-0.532227,0.849121,0.0332031
1708857507939116,-0.556885,0.64624,0.138428
1708857507943042,-0.369385,0.64624,0.138428
1708857507946965,-0.47583,0.855957,0.101807
1708857507950926,-0.47583,0.905273,0.0380859
1708857507954831,-0.47583,0.905273,0.0380859
1708857507958779,-0.470459,1.13501,0.0593262
1708857507962809,-0.470459,0.619385,0.121094
1708857507966731,-0.414551,0.619385,0.121094
1708857507970670,-0.439453,1.0354,0.0439453
1708857507974579,-0.439453,1.02881,0.0649414
1708857507978521,-0.494629,1.02881,0.0649414
1708857507982461,-0.45459,0.905029,0.114502
1708857507986423,-0.45459,0.873535,0.0991211
1708857507990330,-0.409424,0.873535,0.0991211
1708857507994307,-0.456299,0.646973,0.0744629
1708857507998238,-0.456299,0.642578,0.0527344
1708857508002159,-0.438232,1.08008,0.0527344
1708857508006074,-0.49707,1.04639,0.110107
1708857508009977,-0.49707,1.02612,0.118408
1708857508013932,-0.335938,0.713623,0.118408
1708857508017837,-0.453857,0.781494,0.0290527
1708857508021788,-0.453857,0.781494,0.0681152
1708857508025689,-0.453369,0.838623,0.0681152
1708857508029608,-0.424561,1.0166,0.116943
1708857508033572,-0.424561,1.0166,0.0895996
1708857508037474,-0.489502,0.928955,0.0895996
1708857508041434,-0.435791,0.72876,0.0759277
1708857508045379,-0.435791,0.72876,0.0773926
1708857508049310,-0.384766,1.08911,0.0773926
1708857508053242,-0.414307,0.777588,0.0556641
1708857508057185,-0.414307,0.777588,0.0356445
1708857508061113,-0.351807,1.04224,0.0356445
1708857508065070,-0.329346,0.570557,0.139893
1708857508069035,-0.391846,0.570557,0.127197
1708857508073002,-0.384033,0.98877,0.127197
1708857508076918,-0.429199,1.23462,0.0200195
1708857508080850,-0.429199,1.23462,0.0424805
1708857508084761,-0.42041,1.07446,0.0424805
1708857508088704,-0.383545,0.902588,0.130371
1708857508092659,-0.258545,0.902588,0.130371
1708857508096585,-0.316895,0.932861,0.097168
1708857508100537,-0.316895,0.988037,0.0300293
1708857508104459,-0.370117,0.988037,0.0300293
1708857508108387,-0.35791,1.13525,0.0808105
1708857508112324,-0.35791,0.625977,0.143799
1708857508116281,-0.317383,0.625977,0.143799
1708857508120253,-0.363037,0.751221,0.046875
1708857508124148,-0.363037,0.936279,0.0908203
1708857508128068,-0.369141,0.936279,0.0908203
1708857508132023,-0.355469,0.959717,0.0895996
1708857508135988,-0.355469,0.939941,0.0539551
1708857508139886,-0.341309,1.06494,0.0539551
1708857508143832,-0.355713,0.740479,0.0883789
1708857508147784,-0.355713,0.7229,0.0969238
1708857508151741,-0.298584,1.2229,0.0969238
1708857508155666,-0.365234,0.973145,0.0681152
1708857508159570,-0.365234,0.938721,0.0605469
1708857508163492,-0.297852,1.00122,0.0605469
1708857508167443,-0.307617,0.930176,0.0925293
1708857508171368,-0.307617,0.930176,0.157471
1708857508175334,-0.293213,0.941406,0.157471
1708857508179231,-0.3396,1.37769,-0.00732422
1708857508183279,-0.3396,1.37769,0.112793
1708857508187181,-0.342529,1.03149,0.112793
1708857508191146,-0.18457,0.811523,0.139893
1708857508195098,-0.18457,0.811523,0.0205078
1708857508198977,-0.379395,0.919922,0.0205078
1708857508202923,-0.315186,0.886475,0.107178
1708857508206886,-0.315186,0.886475,0.0783691
1708857508210814,-0.317383,1.09009,0.0783691
1708857508214728,-0.369141,0.941406,0.064209
1708857508218647,-0.369141,0.941406,0.0627441
1708857508222583,-0.273193,0.667969,0.125244
1708857508226520,-0.292969,1.00586,0.0969238
1708857508230481,-0.292969,1.00586,0.0969238
1708857508234400,-0.365479,1.09839,0.0178223
1708857508238331,-0.365479,1.21387,0.0830078
1708857508242287,-0.297119,1.21387,0.0830078
1708857508246267,-0.188965,0.875977,0.13501
1708857508250129,-0.188965,0.718018,0.0556641
1708857508254091,-0.199463,0.718018,0.0556641
1708857508257995,-0.21582,1.12354,0.0883789
1708857508261940,-0.21582,0.987793,0.0664062
1708857508265878,-0.293945,0.987793,0.0664062
1708857508269840,-0.365967,1.22095,0.0307617
1708857508273758,-0.365967,1.19922,0.16626
1708857508277706,-0.25293,0.824219,0.16626
1708857508281655,-0.254883,0.943359,0.0700684
1708857508285589,-0.254883,0.939697,0.0275879
1708857508289540,-0.322998,1.1897,0.0275879
1708857508293532,-0.203125,0.980469,0.11377
1708857508297464,-0.203125,0.97583,0.0317383
1708857508301379,-0.194824,1.28833,0.0317383
1708857508305314,-0.152344,0.790039,0.144043
1708857508309275,-0.152344,0.790039,0.0905762
1708857508313196,-0.158203,0.993896,0.0905762
1708857508317149,-0.259766,1.17773,0.0317383
1708857508321077,-0.259766,1.17773,0.0610352
1708857508324967,-0.248291,1.00293,0.0610352
1708857508328886,-0.221924,1.27295,0.0732422
1708857508332819,-0.221924,1.27295,0.159912
1708857508336759,-0.172119,0.680176,0.159912
1708857508340680,-0.188477,0.949951,0.0661621
1708857508344619,-0.188477,0.949951,0.0942383
1708857508348548,-0.259033,1.19824,0.0317383
1708857508352480,-0.267334,1.24609,0.0410156
1708857508356405,-0.267334,1.24609,0.0383301
1708857508360337,-0.224121,1.27368,0.10083
1708857508364266,-0.198242,0.814453,0.173584
1708857508368201,-0.135742,0.814453,0.173584
1708857508372147,-0.118896,0.786621,0.0788574
1708857508376122,-0.118896,0.963867,0.0192871
1708857508380029,-0.215332,0.963867,0.0192871
1708857508383957,-0.250977,1.12109,0.0603027
1708857508387868,-0.250977,1.23706,0.0869141
1708857508391818,-0.243408,1.23706,0.0869141
1708857508395737,-0.221436,0.91626,0.149902
1708857508399671,-0.221436,0.831543,0.0876465
1708857508403664,-0.105225,0.831543,0.0876465
1708857508407595,-0.196533,0.921143,0.0390625
1708857508411512,-0.196533,0.90625,0.0559082
1708857508415449,-0.192871,0.96875,0.0559082
1708857508419365,-0.230957,1.3042,0.0256348
1708857508423324,-0.230957,1.25879,0.15332
1708857508427219,-0.205078,0.883789,0.15332
1708857508431158,-0.0952148,0.843262,0.14209
1708857508435083,-0.0952148,0.871826,0.00415039
1708857508439007,-0.178467,0.871826,0.00415039
1708857508442970,-0.237305,1.04761,0.0373535
1708857508446911,-0.237305,1.04761,0.108643
1708857508450796,-0.206543,1.32007,0.108643
1708857508454734,-0.236816,1.11548,0.123779
1708857508458653,-0.236816,1.11548,0.100586
1708857508462578,-0.159912,1.21924,0.100586
1708857508466533,-0.060791,0.980469,0.101074
1708857508470491,-0.060791,0.980469,0.0893555
1708857508474384,-0.102539,0.799072,0.0268555
1708857508478315,-0.0771484,1.24438,0.0131836
1708857508482278,-0.139648,1.24438,0.0146484
1708857508486171,-0.171875,1.01172,0.139648
1708857508490118,-0.133057,1.26489,0.108643
1708857508494032,-0.133057,1.26489,0.108643
1708857508497963,-0.196045,1.05469,0.0751953
1708857508501934,-0.242188,0.865967,0.0983887
1708857508505863,-0.0546875,0.865967,0.0983887
1708857508509780,-0.110107,0.945312,0.0219727
1708857508513764,-0.110107,0.82373,0.105225
1708857508517732,-0.144775,0.82373,0.105225
1708857508521627,-0.122314,1.13525,0.127197
1708857508525554,-0.122314,1.24048,0.0739746
1708857508529476,-0.215332,1.24048,0.0739746
1708857508533416,-0.166748,1.06226,0.0710449
1708857508537381,-0.166748,1.00537,0.0646973
1708857508541258,-0.0722656,1.13037,0.0646973
1708857508545219,-0.0681152,0.86084,0.0952148
1708857508549172,-0.0681152,0.873047,0.0812988
1708857508553111,-0.0336914,0.998047,0.0812988
1708857508557005,-0.0830078,1.09033,0.0893555
1708857508560928,-0.0830078,1.11646,0.0666504
1708857508564849,-0.122803,0.991455,0.0666504
1708857508568781,-0.168701,1.20215,0.0615234
1708857508572700,-0.168701,1.20215,0.110596
1708857508576618,-0.144775,0.985107,0.110596
1708857508580571,-0.143555,1.15771,0.074707
1708857508584485,-0.143555,1.15771,0.125488
1708857508588409,-0.0573731,1.16089,0.125488
1708857508592390,-0.0561523,0.848877,0.059082
1708857508596307,-0.0561523,0.848877,0.0336914
1708857508600211,-0.0681152,1.03369,0.0336914
1708857508604145,-0.0991211,0.955811,0.0969238
1708857508608092,-0.0991211,0.955811,0.0959473
1708857508612017,-0.124023,1.22363,0.0959473
1708857508615949,-0.0778809,1.29517,0.0974121
1708857508619870,-0.140381,1.29517,0.0776367
1708857508623879,-0.110352,0.992432,0.0776367
1708857508627796,-0.0678711,1.10693,0.0324707
1708857508631725,-0.0678711,1.10693,0.0324707
1708857508635675,-0.0361328,0.78833,0.0788574
1708857508639570,-0.0361328,0.800049,0.103516
1708857508643490,-0.0324707,0.800049,0.103516
1708857508647469,-0.101318,0.926514,0.101074
1708857508651342,-0.101318,0.981201,0.0593262
1708857508655277,-0.173096,0.981201,0.0593262
1708857508659209,-0.144043,1.26123,0.0759277
1708857508663141,-0.144043,1.11597,0.0856934
1708857508667101,-0.161865,1.11597,0.0856934
1708857508670998,-0.067627,1.12915,0.076416
1708857508674933,-0.067627,1.13794,0.118408
1708857508678933,-0.0187988,1.07544,0.118408
1708857508682837,0,1.00391,0.0834961
1708857508686673,0,1.06079,0.0439453
1708857508690628,-0.00317383,1.18579,0.0439453
1708857508694534,-0.0551758,0.941406,0.0876465
1708857508698455,-0.0551758,0.941406,0.0893555
1708857508702422,-0.0515137,1.10278,0.0893555
1708857508706307,-0.123535,1.12402,0.0805664
1708857508710235,-0.123535,1.12402,0.109863
1708857508714165,-0.100342,1.02686,0.109863
1708857508718083,-0.0810547,1.20703,0.0681152
1708857508721989,-0.0810547,1.20703,0.122314
1708857508725925,-0.050293,0.952637,0.0598144
1708857508729848,-0.00195313,1.04858,0.076416
1708857508733777,-0.00195313,1.04858,0.113281
1708857508737690,0.0251465,1.02539,0.113281
1708857508741594,0.0473633,0.904053,0.0720215
1708857508745535,-0.0151367,0.904053,0.0720215
1708857508749448,-0.0397949,1.12134,0.0776367
1708857508753375,-0.0397949,0.845215,0.112061
1708857508757308,-0.048584,0.845215,0.112061
1708857508761238,-0.0751953,1.18433,0.0456543
1708857508765169,-0.0751953,1.06519,0.0830078
1708857508769100,-0.0952148,1.06519,0.0830078
1708857508773024,-0.0571289,1.04395,0.101318
1708857508776960,-0.0571289,1.17749,0.0683594
1708857508780882,-0.045166,1.17749,0.0683594
1708857508784820,-0.0253906,0.966309,0.0644531
1708857508788845,-0.0253906,0.955566,0.0688477
1708857508792781,0.0270996,1.01807,0.0688477
1708857508796619,0,1.06079,0.0861816
1708857508800464,0,1.03467,0.0996094
1708857508804401,-0.0273438,0.909668,0.0996094
1708857508808345,-0.0483398,1.29126,0.0778809
1708857508812271,-0.0483398,1.29126,0.106201
1708857508816181,-0.0808105,1.05103,0.106201
1708857508820110,-0.0593262,1.11597,0.0734863
1708857508824033,-0.0593262,1.11597,0.0820312
1708857508827957,-0.0219727,1.08374,0.0820312
1708857508831902,-0.0183105,0.923584,0.0888672
1708857508835845,-0.0183105,0.923584,0.095459
1708857508839767,0.00097656,1.18945,0.095459
1708857508843700,0.0126953,0.98877,0.0705566
1708857508847649,-0.0498047,0.98877,0.0991211
1708857508851565,-0.0419922,1.16309,0.0366211
1708857508855500,-0.00439453,1.09595,0.0837402
1708857508859409,-0.00439453,1.09595,0.121338
1708857508863355,-0.0532227,0.984863,0.0588379
1708857508867300,-0.0383301,1.10229,0.116211
1708857508871199,0.0241699,1.10229,0.116211
1708857508875103,-0.0131836,0.826904,0.106201
1708857508879054,-0.0131836,1.08618,0.0275879
1708857508882973,-0.0334473,1.08618,0.0275879
1708857508886937,-0.0195312,0.927979,0.11377
1708857508890847,-0.0195312,0.933105,0.117676
1708857508894788,-0.0236816,0.933105,0.117676
1708857508898878,-0.0651855,1.12012,0.0698242
1708857508902708,-0.0651855,0.923828,0.118408
1708857508906626,-0.0112305,0.923828,0.118408
1708857508910537,0.00341797,1.0249,0.0307617
1708857508914448,0.00341797,1.0271,0.050293
1708857508918363,-0.0390625,1.0271,0.050293
1708857508922296,0.0273438,1.021,0.0986328
1708857508926201,0.0273438,1.04517,0.0600586
1708857508930139,-0.0253906,1.23267,0.0600586
1708857508934061,-0.00415039,0.956299,0.100098
1708857508937987,-0.00415039,0.956299,0.0627441
1708857508941919,0.0234375,1.18872,0.0627441
1708857508945825,0.0412598,1.08813,0.0751953
1708857508949781,0.0412598,1.08813,0.0847168
1708857508953708,-0.0192871,0.975342,0.0847168
1708857508957636,0.0290527,1.2627,0.117676
1708857508961560,0.0290527,1.2627,0.105469
1708857508965521,-0.0395508,1.00757,0.105469
1708857508969408,-0.0224609,1.22192,0.059082
1708857508973341,-0.0224609,1.22192,0.0424805
1708857508977250,0.0290527,1.09668,0.10498
1708857508981164,0.00561523,0.973633,0.0664062
1708857508985068,0.00561523,0.973633,0.0664062
1708857508988988,0.0202637,1.16309,0.0520019
1708857508992891,0.0202637,0.930664,0.114014
1708857508996822,0.0146484,0.930664,0.114014
1708857509000758,0.00170898,1.09961,0.0578613
1708857509004673,0.00170898,1.08252,0.0771484
1708857509008670,0.00292969,1.08252,0.0771484
1708857509012579,-0.0136719,1.02466,0.0898438
1708857509016551,-0.0136719,1.15186,0.079834
1708857509020440,0.00048828,1.15186,0.079834
1708857509024371,0.0246582,0.882568,0.128418
1708857509028298,0.0246582,0.886475,0.0673828
1708857509032228,0.00927734,0.948975,0.0673828
1708857509036144,0.013916,1.04736,0.0852051
1708857509040046,0.013916,1.01831,0.0737305
1708857509043990,-0.0202637,0.893311,0.0737305
1708857509047914,-0.0224609,1.18628,0.0693359
1708857509051830,-0.0224609,1.18628,0.0974121
1708857509055800,-0.0344238,0.984863,0.0974121
1708857509059684,-0.0361328,0.956787,0.0615234
1708857509063616,-0.0361328,0.956787,0.0805664
1708857509067556,0.0229492,1.10571,0.0805664
1708857509071452,-0.00708008,0.956055,0.0544434
1708857509075385,-0.00708008,0.956055,0.0349121
1708857509079318,0.0302734,1.04834,0.0974121
1708857509083204,0.012207,1.13843,0.0839844
1708857509087156,0.012207,1.13843,0.0947266
1708857509091050,-0.00561523,0.98291,0.0947266
1708857509094973,-0.0417481,1.10718,0.0976562
1708857509098889,0.020752,1.10718,0.0976562
1708857509102796,0.00097656,1.00537,0.0717773
1708857509106724,0.00097656,0.981689,0.0744629
1708857509110662,0.0126953,0.981689,0.0744629
1708857509114621,0.0219727,1.04883,0.0947266
1708857509118580,0.0219727,0.991211,0.0720215
1708857509122508,-0.00927734,0.991211,0.0720215
1708857509126406,0.00073242,1.0542,0.0715332
1708857509130300,0.00073242,1.08301,0.074707
1708857509134205,-0.00073242,1.08301,0.074707
1708857509138117,-0.00463867,1.06201,0.0637207
1708857509142028,-0.00463867,1.00244,0.0849609
1708857509145980,0.0192871,1.12744,0.0849609
1708857509149907,0.0185547,1.03564,0.0844727
1708857509153783,0.0185547,1.05322,0.0922852
1708857509157713,0.0297852,1.05322,0.0922852
1708857509161629,0.0307617,1.06641,0.074707
1708857509165549,0.0307617,1.06641,0.0966797
1708857509169523,0.0236816,1.02979,0.0966797
1708857509173407,0.0134277,1.0271,0.0942383
1708857509177319,0.0134277,1.0271,0.0769043
1708857509181263,-0.00463867,1.01636,0.0769043
1708857509185164,0.00708008,0.992188,0.0878906
1708857509189092,0.00708008,0.992188,0.0717773
1708857509193008,-0.00537109,0.988281,0.0717773
1708857509196967,-0.00463867,0.987549,0.0666504
1708857509200895,-0.00463867,0.987549,0.0822754
1708857509204809,0.0090332,0.990479,0.0822754
1708857509208857,0.0136719,1.0083,0.0749512
1708857509212654,0.0136719,1.0083,0.0749512
1708857509216588,0.0231934,1.01978,0.0847168
1708857509220509,0.0231934,1.02051,0.0800781
1708857509224406,0.0231934,1.02051,0.0800781
1708857509228391,0.0192871,1.01587,0.0847168
1708857509232308,0.0192871,1.02002,0.0871582
1708857509236256,0.017334,1.02002,0.0871582
1708857509240135,0.0195312,1.02441,0.0910645
1708857509244030,0.0195312,1.01709,0.090332
1708857509247953,0.0129394,1.01709,0.090332
1708857509251893,0.0102539,1.01318,0.0834961
1708857509255800,0.0102539,1.02002,0.0791016
1708857509259680,0.0126953,1.02002,0.0791016
1708857509263627,0.00585938,1.0127,0.0756836
1708857509267531,0.00585938,1.0127,0.0756836
1708857509271486,-0.00219727,1.02002,0.0756836
1708857509275392,0.0090332,1.01367,0.0854492
1708857509279272,0.0090332,1.01367,0.0698242
1708857509283201,-0.00097656,1.00488,0.0698242
1708857509287095,0.0107422,1.00928,0.0910645
1708857509291025,0.0107422,1.00928,0.0932617
1708857509294949,0.00976563,0.997803,0.0932617
1708857509298869,0.0131836,1.00562,0.0891113
1708857509302796,0.0131836,1.00562,0.097168
1708857509306735,0.0192871,1.0127,0.097168
1708857509310658,0.00976563,1.00684,0.0852051
1708857509314615,0.00976563,1.00684,0.0776367
1708857509318504,0.0065918,1.01001,0.0776367
1708857509322412,0.00756836,1.00903,0.0803223
1708857509326322,0.00756836,1.00903,0.0803223
1708857509330231,0.00854492,1.00659,0.0769043
1708857509334150,0.00854492,1.00098,0.0786133
1708857509338134,0.00512695,1.00098,0.0786133
1708857509342055,0.00317383,0.998047,0.0808105
1708857509345983,0.00317383,0.999023,0.0756836
1708857509349906,0.00195313,0.999023,0.0756836
1708857509353826,0.0065918,0.995605,0.0773926
1708857509357760,0.0065918,0.943115,0.0817871
1708857509361686,0.0107422,1.00562,0.0817871
1708857509365555,0.00610352,1.01123,0.088623
1708857509369456,0.00610352,1.00586,0.090332
1708857509373351,0.00610352,1.00586,0.090332
1708857509377310,0.0134277,0.998047,0.0854492
1708857509381217,0.0134277,0.998047,0.083252
1708857509385140,0.00415039,1.00562,0.083252
1708857509389054,0.00585938,1.01147,0.0773926
1708857509392949,0.00585938,1.01147,0.0800781
1708857509396862,0.00488281,1.00586,0.0800781
1708857509400804,0.0109863,1.00659,0.0749512
1708857509404690,0.0109863,1.00659,0.0715332
1708857509408578,0.00732422,1.00659,0.0715332
1708857509412510,0.0104981,1.0105,0.0751953
1708857509416432,0.0104981,1.0105,0.0825195
1708857509420338,0.0134277,1.00879,0.0825195
1708857509424266,0.0158691,1.01514,0.0864258
1708857509428194,0.0158691,1.01514,0.0864258
1708857509432112,0.0158691,1.01904,0.0893555
1708857509436044,0.0158691,1.00879,0.0888672
1708857509439980,0.0148926,1.00879,0.0888672
1708857509443901,0.0126953,1.01001,0.0834961
1708857509447881,0.0126953,1.01685,0.0808105
1708857509451796,0.0102539,1.01685,0.0808105
1708857509455704,0.012207,1.00269,0.0844727
1708857509459626,0.012207,1.00708,0.0778809
1708857509463541,0.0146484,1.00708,0.0778809
1708857509467478,0.0078125,1.00659,0.0788574
1708857509471391,0.0078125,1.00293,0.0769043
1708857509475313,0.0078125,1.00293,0.0769043
1708857509479230,0.0100098,1.0083,0.0827637
1708857509483142,0.0100098,1.0083,0.0859375
1708857509487057,0.012207,1.00391,0.0859375
1708857509490999,0.012207,1.00098,0.0847168
1708857509494897,0.012207,1.00098,0.0854492
1708857509498884,0.0163574,1.0061,0.0854492
1708857509502723,0.0168457,1.01025,0.0791016
1708857509506645,0.0168457,1.01025,0.0822754
1708857509510546,0.0158691,1.0166,0.0822754
1708857509514461,0.0153809,1.01733,0.0861816
1708857509518456,0.0153809,1.01733,0.0908203
1708857509522403,0.0144043,1.01978,0.0908203
1708857509526321,0.0124512,1.00928,0.0759277
1708857509530279,0.0124512,1.00928,0.0773926
1708857509534170,0.0144043,1.01099,0.0773926
1708857509538092,0.0148926,1.0105,0.0756836
1708857509542048,0.0148926,1.0105,0.0756836
1708857509545968,0.0161133,1.01294,0.0688477
1708857509549861,0.0161133,1.01709,0.0793457
1708857509553812,0.0126953,1.01709,0.0793457
1708857509557705,0.00854492,1.00391,0.0822754
1708857509561641,0.00854492,0.996826,0.0839844
1708857509565572,0.00415039,0.996826,0.0839844
1708857509569483,0.00683594,1.00269,0.0822754
1708857509573406,0.00683594,1.06055,0.0856934
1708857509577331,0.00390625,0.998047,0.0856934
1708857509581245,0.00048828,1.00024,0.0839844
1708857509585151,0.00048828,1.00293,0.0842285
1708857509589052,0.00610352,1.00293,0.0842285
1708857509593000,0.00854492,1.00317,0.0739746
1708857509596903,0.00854492,1.00317,0.0791016
1708857509600806,0.013916,1.00439,0.0791016
1708857509604727,0.0148926,1.00562,0.076416
1708857509608649,0.0148926,1.00562,0.0773926
1708857509612585,0.0126953,1.01074,0.0773926
1708857509616476,0.00634766,1.01074,0.0861816
1708857509620429,0.00634766,1.01074,0.0915527
1708857509624311,0.0129394,1.00854,0.0915527
1708857509628320,0.00366211,1.00366,0.0854492
1708857509632186,0.00366211,1.00366,0.0820312
1708857509636084,0.00878906,0.999268,0.0820312
1708857509640017,0.0102539,0.994873,0.0771484
1708857509643951,0.0102539,0.994873,0.0771484
1708857509647881,0.0107422,0.992432,0.0839844
1708857509651828,0.00537109,0.997803,0.0810547
1708857509655742,0.00537109,0.997803,0.0810547
1708857509659628,0.00561523,1.00391,0.0805664
1708857509663534,0.00561523,1.00269,0.0847168
1708857509667481,0.00390625,1.00269,0.0847168
1708857509671392,0.00830078,1.01758,0.0720215
1708857509675298,0.00830078,1.00781,0.081543
1708857509679212,0.0112305,1.00781,0.081543
1708857509683132,0.00317383,0.998779,0.0788574
1708857509687072,0.00317383,0.939697,0.081543
1708857509690991,0.00244141,1.0022,0.081543
1708857509694863,0.00512695,1.0061,0.0825195
1708857509698774,0.00512695,1.00806,0.0791016
1708857509702679,0.0100098,1.00806,0.0791016
1708857509706630,0.0124512,1.00952,0.0839844
1708857509710524,0.0124512,1.00952,0.0847168
1708857509714441,0.0126953,1.0127,0.0847168
1708857509718370,0.0158691,1.01318,0.0847168
1708857509722304,0.0158691,1.01318,0.0808105
1708857509726192,0.0183105,1.0144,0.0808105
1708857509730131,0.0178223,1.01636,0.072998
1708857509734036,0.0178223,1.01636,0.0732422
1708857509738053,0.0166016,1.01392,0.0732422
1708857509741956,0.00952148,1.01123,0.0749512
1708857509745852,0.00952148,1.01123,0.0791016
1708857509749748,0.0100098,1.01001,0.0791016
1708857509753654,0.00708008,1.00562,0.0866699
1708857509757583,0.00708008,1.00562,0.0866699
1708857509761482,0.00585938,1.00244,0.0869141
1708857509765395,0.00585938,1.00391,0.0849609
1708857509769349,0.00927734,1.00391,0.0849609
1708857509773243,0.00708008,0.993164,0.0849609
1708857509777153,0.00708008,1.00659,0.0888672
1708857509781090,0.0114746,1.00659,0.0888672
1708857509784996,0.00610352,1.00952,0.0844727
1708857509788904,0.00610352,1.00732,0.0812988
1708857509792831,0.00927734,1.00732,0.0812988
1708857509796740,0.0126953,1.00952,0.0793457
1708857509800649,0.0126953,1.01367,0.0754395
1708857509804627,0.015625,1.01367,0.0754395
1708857509808512,0.0117188,1.01147,0.072998
1708857509812422,0.0117188,1.01147,0.0759277
1708857509816349,0.0197754,1.02002,0.0759277
1708857509820279,0.0114746,1.01514,0.0759277
1708857509824214,0.0114746,1.01514,0.0766602
1708857509828106,0.0129394,1.0127,0.0766602
1708857509832028,0.017334,1.00977,0.0744629
1708857509835947,0.017334,1.00977,0.0881348
1708857509839889,0.013916,1.00977,0.0881348
1708857509843789,0.0166016,1.01001,0.0849609
1708857509847757,0.0166016,1.01001,0.0861816
1708857509851694,0.0148926,1.01367,0.0861816
1708857509855609,0.0178223,1.00806,0.0844727
1708857509859569,0.0178223,1.00806,0.0844727
1708857509863440,0.0078125,1.0105,0.0820312
1708857509867356,0.0078125,1.00781,0.0786133
1708857509871271,0.00170898,1.00781,0.0786133
1708857509875196,0.00854492,1.00513,0.0827637
1708857509879103,0.00854492,1.00562,0.078125
1708857509882996,0.00024414,1.00562,0.078125
1708857509886911,0.00805664,0.991943,0.0791016
1708857509890872,0.00805664,0.994385,0.0800781
1708857509894773,-0.00024414,0.994385,0.0800781
1708857509898674,0.00927734,1.0022,0.0820312
1708857509902597,0.00927734,1.00122,0.0849609
1708857509906512,0.00268555,1.00122,0.0849609
1708857509910455,0.0141602,1.01123,0.0825195
1708857509914329,0.0141602,1.01123,0.0795898
1708857509918287,0.0146484,1.01465,0.0795898
1708857509922180,0.0144043,1.01929,0.0869141
1708857509926091,0.0144043,1.01929,0.0751953
1708857509930009,0.00927734,1.01538,0.0751953
1708857509933998,0.013916,1.00928,0.0839844
1708857509937843,0.013916,1.00928,0.0803223
1708857509941760,0.00952148,1.01172,0.0803223
1708857509945668,0.0065918,1.00537,0.076416
1708857509949614,0.0065918,1.00537,0.0803223
1708857509953515,0.00390625,0.998535,0.0803223
1708857509957481,0.00292969,1.00098,0.079834
1708857509961390,0.00292969,1.00098,0.0869141
1708857509965334,0.00683594,0.995605,0.0869141
1708857509969276,0.00830078,0.998779,0.0861816
1708857509973188,0.00830078,0.998779,0.0861816
1708857509977103,0.0107422,1.00098,0.0854492
1708857509981045,0.0107422,1.00513,0.081543
1708857509984976,0.0129394,1.00513,0.081543
1708857509988864,0.0107422,1.00708,0.081543
1708857509992804,0.0107422,1.01196,0.0759277
1708857509996747,0.00830078,1.01196,0.0759277
1708857510000680,0.00756836,1.00146,0.081543
1708857510004525,0.00756836,1.00854,0.078125
1708857510008473,0.00927734,1.00854,0.078125
1708857510012399,0.00683594,1.00415,0.0778809
1708857510016291,0.00683594,1.00513,0.0805664
1708857510020228,0.00976563,1.00513,0.0805664
1708857510024094,0.0102539,1.00708,0.0817871
1708857510028010,0.0102539,1.00708,0.0800781
1708857510031929,0.013916,1.00684,0.0800781
1708857510035847,0.0153809,1.01221,0.0827637
1708857510039775,0.0153809,1.01221,0.0810547
1708857510043666,0.0112305,1.02368,0.0810547
1708857510047592,0.0144043,1.01758,0.0888672
1708857510051528,0.0144043,1.01758,0.0861816
1708857510055419,0.0158691,1.01416,0.0861816
1708857510059349,0.0192871,1.01123,0.0834961
1708857510063244,0.0192871,1.01123,0.0844727
1708857510067227,0.0102539,1.00757,0.0844727
1708857510071170,0.0141602,1.00488,0.074707
1708857510075056,0.0141602,1.00488,0.074707
1708857510079028,0.00976563,0.999512,0.0837402
1708857510082935,0.00976563,1.00439,0.0810547
1708857510086833,0.0104981,1.00439,0.0810547
1708857510090752,0.00927734,1.00684,0.0800781
1708857510094660,0.00927734,1.01245,0.0869141
1708857510098580,0.0114746,1.01245,0.0869141
1708857510102520,0.0136719,1.00732,0.0795898
1708857510106440,0.0136719,1.00977,0.0847168
1708857510110394,0.00488281,1.00977,0.0847168
1708857510114286,0.0185547,1.01611,0.0751953
1708857510118206,0.0185547,1.00879,0.0844727
1708857510122148,0.0109863,1.00879,0.0844727
1708857510126062,0.0112305,1.00415,0.0788574
1708857510129982,0.0112305,1.00415,0.0876465
1708857510133876,0.0114746,1.00195,0.0876465
1708857510137793,0.00952148,1.0061,0.0791016
1708857510141699,0.00952148,1.0061,0.0805664
1708857510145621,0.00927734,1.00537,0.0805664
1708857510149564,0.0114746,1.00195,0.0805664
1708857510153470,0.0114746,1.00195,0.0803223
1708857510157346,0.0141602,1.01709,0.0803223
1708857510161280,0.017334,1.00488,0.0859375
1708857510165197,0.017334,1.00488,0.0869141
1708857510169110,0.0158691,1.01221,0.0869141
1708857510173028,0.0166016,1.00903,0.0827637
1708857510177000,0.0166016,1.00903,0.079834
1708857510180928,0.0151367,1.00757,0.079834
1708857510184828,0.012207,1.01855,0.0808105
1708857510188868,0.012207,1.01855,0.0808105
1708857510192687,0.0175781,1.02026,0.0810547
1708857510196570,0.0175781,1.01245,0.0844727