t,ax,ay,az
1709144270166913,-0.0109863,-0.998779,0.0876465
1709144270170906,-0.0126953,-0.992676,0.0893555
1709144270174818,-0.0126953,-0.996826,0.0930176
1709144270178788,-0.0104981,-0.996826,0.0930176
1709144270182738,-0.017334,-0.996582,0.0849609
1709144270186662,-0.017334,-0.99292,0.0888672
1709144270190607,-0.0112305,-0.99292,0.0888672
1709144270194622,-0.0104981,-0.992432,0.0895996
1709144270198570,-0.0104981,-0.998779,0.0991211
1709144270202566,-0.0158691,-0.998779,0.0991211
1709144270206451,-0.00512695,-1.00195,0.0930176
1709144270210389,-0.00512695,-1.00098,0.090332
1709144270214306,-0.0078125,-1.00098,0.090332
1709144270218204,-0.0107422,-1.00049,0.0898438
1709144270222167,-0.0107422,-1.05273,0.0900879
1709144270226097,-0.0102539,-0.990234,0.0900879
1709144270230052,-0.0119629,-0.996338,0.0900879
1709144270233958,-0.0119629,-0.996338,0.0915527
1709144270237914,-0.0114746,-0.993164,0.0915527
1709144270241857,-0.0124512,-0.987305,0.0908203
1709144270245786,-0.0124512,-0.987305,0.0942383
1709144270249702,-0.0136719,-1.01147,0.0942383
1709144270253668,-0.00805664,-0.989502,0.0949707
1709144270257615,-0.00805664,-0.989502,0.0917969
1709144270261531,-0.0100098,-1.01172,0.0917969
1709144270265469,-0.0102539,-0.98584,0.090332
1709144270269399,-0.0102539,-0.98584,0.0874023
1709144270273328,-0.0168457,-1.02075,0.0874023
1709144270277301,-0.0178223,-1.01489,0.0983887
1709144270281247,-0.0178223,-1.01489,0.0866699
1709144270285143,-0.00634766,-1.00903,0.0866699
1709144270289080,-0.0158691,-1.03979,0.0827637
1709144270293054,-0.0158691,-1.03979,0.0827637
1709144270296955,-0.00439453,-0.95752,0.0964355
1709144270300898,-0.0161133,-1.09863,0.0822754
1709144270304900,-0.0161133,-1.09863,0.0822754
1709144270308840,-0.00927734,-0.949707,0.0949707
1709144270312773,-0.00927734,-1.03418,0.0986328
1709144270316698,-0.0012207,-1.03418,0.0986328
1709144270320622,-0.0351562,-1.02759,0.0805664
1709144270324601,-0.0351562,-0.952881,0.102295
1709144270328528,-0.00268555,-0.952881,0.102295
1709144270332423,-0.0180664,-1.12036,0.088623
1709144270336394,-0.0180664,-0.956055,0.0944824
1709144270340327,-0.013916,-0.956055,0.0944824
1709144270344266,-0.00195313,-0.997559,0.10498
1709144270348190,-0.00195313,-0.961914,0.0817871
1709144270352091,-0.0266113,-1.02441,0.0817871
1709144270356026,-0.00341797,-0.936279,0.0932617
1709144270359978,-0.00341797,-0.915527,0.0952148
1709144270363858,-0.00366211,-1.10303,0.0952148
1709144270367828,-0.0305176,-0.903076,0.0749512
1709144270371770,-0.0305176,-0.903076,0.0966797
1709144270375747,-0.0178223,-1.10254,0.0966797
1709144270379688,-0.0158691,-0.969482,0.0883789
1709144270383636,-0.0158691,-0.969482,0.0942383
1709144270387528,-0.00732422,-1.00952,0.0942383
1709144270391466,-0.0185547,-1.03662,0.083252
1709144270395393,-0.0185547,-1.03662,0.0996094
1709144270399363,-0.00537109,-0.923584,0.0996094
1709144270403298,-0.0268555,-1.19116,0.0974121
1709144270407198,-0.0268555,-1.19116,0.0947266
1709144270411115,-0.0246582,-0.974365,0.0947266
1709144270415169,-0.0419922,-1.19458,0.0849609
1709144270419112,-0.0419922,-1.19458,0.0961914
1709144270423031,0.00878906,-1.06323,0.0961914
1709144270426843,0,-0.965088,0.078125
1709144270430680,0,-0.965088,0.078125
1709144270434605,0.0192871,-1.10083,0.105469
1709144270438555,0.0192871,-0.79541,0.083252
1709144270442459,0.0153809,-0.79541,0.083252
1709144270446391,-0.034668,-1.11157,0.0825195
1709144270450396,-0.034668,-0.897705,0.0957031
1709144270454305,-0.0136719,-0.897705,0.0957031
1709144270458200,-0.0686035,-1.01782,0.0861816
1709144270462130,-0.0686035,-1.04736,0.0837402
1709144270466084,-0.0581055,-1.04736,0.0837402
1709144270469999,-0.00952148,-0.841553,0.0976562
1709144270473968,-0.00952148,-0.844238,0.0915527
1709144270477894,-0.0258789,-1.09424,0.0915527
1709144270481800,-0.0148926,-1.01123,0.0986328
1709144270485728,-0.0148926,-1.01343,0.0915527
1709144270489662,-0.0300293,-1.13843,0.0915527
1709144270493601,-0.0378418,-1.23193,0.0734863
1709144270497526,-0.0378418,-1.23193,0.110596
1709144270501451,0.0126953,-1.00562,0.110596
1709144270505363,-0.00732422,-1.24146,0.0881348
1709144270509344,-0.00732422,-1.24146,0.0888672
1709144270513283,0.0202637,-0.976074,0.0888672
1709144270517141,-0.00170898,-1.11719,0.101318
1709144270521066,-0.00170898,-1.11719,0.0668945
1709144270525101,-0.0605469,-1.1123,0.0668945
1709144270529025,-0.00195313,-0.955811,0.110596
1709144270532928,-0.00195313,-0.955811,0.0693359
1709144270536858,-0.0661621,-1.13745,0.0693359
1709144270540789,-0.0803223,-0.904541,0.108643
1709144270544742,-0.0178223,-0.904541,0.119629
1709144270548692,-0.0336914,-1.02246,0.119629
1709144270552600,-0.0166016,-1.05225,0.0737305
1709144270556504,-0.0791016,-1.05225,0.0737305
1709144270560456,-0.0078125,-0.876221,0.114258
1709144270564401,-0.0146484,-1.17456,0.0693359
1709144270568331,-0.0771484,-1.17456,0.0693359
1709144270572265,-0.0161133,-1.00684,0.105225
1709144270576158,-0.0161133,-1.01733,0.103271
1709144270580086,-0.0183105,-1.01733,0.103271
1709144270584044,-0.0219727,-1.10303,0.079834
1709144270587998,-0.0219727,-0.879639,0.095459
1709144270591941,0.0322266,-0.879639,0.095459
1709144270595856,-0.0441894,-1.15527,0.0722656
1709144270599804,-0.0441894,-1.13281,0.113525
1709144270603737,-0.0126953,-0.882812,0.113525
1709144270607667,-0.0583496,-1.15942,0.0878906
1709144270611610,-0.0583496,-1.18652,0.0915527
1709144270615535,-0.0390625,-0.999023,0.0915527
1709144270619470,-0.0151367,-0.930908,0.102051
1709144270623380,-0.0151367,-0.891357,0.0944824
1709144270627361,-0.0273438,-1.07886,0.0944824
1709144270631312,-0.0566406,-0.919678,0.0786133
1709144270635326,-0.0566406,-0.919678,0.0974121
1709144270639238,-0.0651855,-1.19995,0.0974121
1709144270643120,-0.0454102,-1.11768,0.114014
1709144270647056,-0.0454102,-1.11768,0.0681152
1709144270651014,-0.0424805,-1.10596,0.0681152
1709144270654951,-0.0546875,-1.2251,0.0563965
1709144270658881,-0.0546875,-1.2251,0.126465
1709144270662801,0.00830078,-0.965332,0.126465
1709144270666739,-0.0595703,-1.24902,0.079834
1709144270670660,-0.0595703,-1.24902,0.101807
1709144270674594,-0.0229492,-1.01929,0.101807
1709144270678514,-0.0563965,-1.01294,0.119629
1709144270682424,0.00610352,-1.01294,0.108643
1709144270686398,-0.0935059,-1.13696,0.0461426
1709144270690323,-0.0908203,-0.893066,0.119141
1709144270694245,-0.0283203,-0.893066,0.119141
1709144270698188,-0.064209,-1.09155,0.10376
1709144270702104,-0.0959473,-0.930664,0.0791016
1709144270706052,-0.0959473,-0.930664,0.0791016
1709144270710031,-0.0317383,-0.92627,0.118408
1709144270713994,-0.0317383,-1.10376,0.0515137
1709144270718026,-0.0793457,-1.10376,0.0515137
1709144270721948,-0.0769043,-0.818115,0.0668945
1709144270725869,-0.0769043,-1.07617,0.106201
1709144270729828,-0.0500488,-1.07617,0.106201
1709144270733752,-0.0656738,-0.939697,0.0856934
1709144270737685,-0.0656738,-0.983643,0.0805664
1709144270741651,-0.0773926,-0.983643,0.0805664
1709144270745614,-0.0825195,-1.19507,0.0869141
1709144270749545,-0.0825195,-1.23706,0.0976562
1709144270753484,-0.0646973,-0.924561,0.0976562
1709144270757433,-0.0864258,-1.19751,0.095459
1709144270761363,-0.0864258,-1.22363,0.121338
1709144270765305,-0.0305176,-0.973633,0.121338
1709144270769248,-0.032959,-0.90332,0.112793
1709144270773223,-0.032959,-0.922607,0.0766602
1709144270777112,-0.106201,-1.17261,0.0766602
1709144270781065,-0.0546875,-0.938965,0.117188
1709144270785005,-0.0546875,-0.938965,0.0415039
1709144270788962,-0.144287,-1.23535,0.0415039
1709144270792857,-0.0908203,-1.03955,0.0849609
1709144270796785,-0.0908203,-1.03955,0.105713
1709144270800733,-0.0275879,-1.03076,0.105713
1709144270804662,-0.102539,-1.16943,0.0529785
1709144270808597,-0.102539,-1.16943,0.0986328
1709144270812557,-0.0407715,-1.00781,0.0986328
1709144270816456,-0.0554199,-1.16333,0.0842285
1709144270820432,-0.0554199,-1.16333,0.0974121
1709144270824440,-0.0793457,-1.01709,0.0974121
1709144270828374,-0.0927734,-0.960938,0.136475
1709144270832292,-0.0302734,-0.960938,0.165771
1709144270836218,-0.115234,-1.12549,0.103271
1709144270840155,-0.074707,-0.865479,0.111084
1709144270844095,-0.074707,-0.865479,0.0788574
1709144270848015,-0.118408,-1.11768,0.0788574
1709144270851950,-0.0715332,-1.03882,0.0595703
1709144270855866,-0.134033,-1.03882,0.0595703
1709144270859859,-0.0983887,-0.977539,0.0996094
1709144270863769,-0.0983887,-1.18994,0.0705566
1709144270867724,-0.118896,-1.18994,0.0705566
1709144270871684,-0.0932617,-0.941162,0.0695801
1709144270875639,-0.0932617,-1.06982,0.0981445
1709144270879549,-0.0576172,-1.06982,0.0981445
1709144270883477,-0.0800781,-0.962158,0.104004
1709144270887405,-0.0800781,-0.9375,0.0932617
1709144270891311,-0.102783,-0.9375,0.0932617
1709144270895225,-0.092041,-1.04053,0.12207
1709144270899218,-0.092041,-1.00928,0.0895996
1709144270903140,-0.145508,-0.946777,0.0895996
1709144270907063,-0.177734,-1.15015,0.0725098
1709144270910993,-0.177734,-1.16675,0.128662
1709144270914933,-0.160889,-1.10425,0.128662
1709144270918880,-0.112549,-1.08862,0.10791
1709144270922788,-0.112549,-1.0752,0.0280762
1709144270926711,-0.172852,-1.2002,0.0280762
1709144270930680,-0.020752,-0.890625,0.12915
1709144270934677,-0.020752,-0.890625,0.0666504
1709144270938610,-0.0961914,-1.15527,0.0666504
1709144270942520,-0.100586,-0.951172,0.0893555
1709144270946466,-0.100586,-0.951172,0.116943
1709144270950443,-0.113525,-1.06665,0.116943
1709144270954352,-0.211426,-1.17407,0.0664062
1709144270958268,-0.211426,-1.17407,0.088623
1709144270962235,-0.185303,-1.01172,0.088623
1709144270966151,-0.172607,-1.15015,0.0932617
1709144270970089,-0.172607,-1.15015,0.0998535
1709144270974033,-0.136963,-0.912109,0.0998535
1709144270977961,-0.166992,-0.89502,0.0893555
1709144270981928,-0.104492,-0.89502,0.0717773
1709144270985875,-0.12793,-0.972656,0.0717773
1709144270989810,-0.133057,-0.878906,0.11499
1709144270993742,-0.133057,-0.878906,0.081543
1709144270997701,-0.211914,-1.16138,0.081543
1709144271001641,-0.196533,-1.12939,0.0822754
1709144271005552,-0.196533,-1.12939,0.0822754
1709144271009519,-0.169922,-0.998047,0.0688477
1709144271013480,-0.169922,-0.973145,0.0866699
1709144271017454,-0.126953,-0.973145,0.0866699
1709144271021379,-0.0505371,-0.678711,0.122314
1709144271025316,-0.0505371,-1.02979,0.0742188
1709144271029237,-0.14624,-1.02979,0.0742188
1709144271033172,-0.185791,-0.952393,0.092041
1709144271037112,-0.185791,-1.19165,0.0847168
1709144271041055,-0.225342,-1.19165,0.0847168
1709144271045043,-0.244629,-1.12036,0.0476074
1709144271048961,-0.244629,-1.08032,0.123535
1709144271052886,-0.154541,-0.955322,0.123535
1709144271056811,-0.162109,-1.15601,0.0861816
1709144271060743,-0.162109,-1.14185,0.0905762
1709144271064698,-0.128418,-0.954346,0.0905762
1709144271068656,-0.171143,-1.06738,0.0864258
1709144271072557,-0.171143,-1.10522,0.0595703
1709144271076472,-0.24707,-1.23022,0.0595703
1709144271080385,-0.151611,-1.01172,0.141602
1709144271084315,-0.151611,-1.01172,0.0822754
1709144271088256,-0.20459,-1.16357,0.0822754
1709144271092202,-0.161621,-0.871338,0.0939941
1709144271096164,-0.161621,-0.871338,0.120117
1709144271100084,-0.105469,-0.901611,0.120117
1709144271104030,-0.266357,-1.1145,0.0368652
1709144271107921,-0.266357,-1.1145,0.0520019
1709144271111860,-0.233154,-1.0498,0.114502
1709144271115772,-0.213867,-1.13574,0.109619
1709144271119723,-0.213867,-1.13574,0.0842285
1709144271123650,-0.235352,-0.931152,0.0842285
1709144271127578,-0.212158,-0.900146,0.0947266
1709144271131518,-0.149658,-0.900146,0.0844727
1709144271135489,-0.184814,-0.922363,0.0844727
1709144271139423,-0.148682,-0.882568,0.0942383
1709144271143393,-0.211182,-0.882568,0.0942383
1709144271147327,-0.277344,-1.29248,0.0842285
1709144271151260,-0.277344,-1.03784,0.0915527
1709144271155270,-0.265381,-1.03784,0.0915527
1709144271159212,-0.175537,-1.00098,0.117676
1709144271163133,-0.175537,-1.05273,0.0371094
1709144271167082,-0.241699,-1.05273,0.0371094
1709144271170984,-0.18335,-0.83374,0.115234
1709144271174937,-0.18335,-1.25122,0.0834961
1709144271178839,-0.274658,-1.25122,0.0834961
1709144271182784,-0.264648,-0.971924,0.109863
1709144271186737,-0.264648,-0.959961,0.126465
1709144271190684,-0.213135,-0.959961,0.126465
1709144271194637,-0.253906,-0.95752,0.0666504
1709144271198564,-0.253906,-0.938721,0.0803223
1709144271202482,-0.243408,-0.813721,0.0803223
1709144271206423,-0.277344,-1.22729,0.105713
1709144271210376,-0.277344,-1.2168,0.0878906
1709144271214310,-0.304932,-1.0293,0.0878906
1709144271218254,-0.219971,-0.961914,0.123047
1709144271222220,-0.219971,-0.961914,0.0410156
1709144271226125,-0.281738,-0.979492,0.0410156
1709144271230069,-0.229248,-0.760986,0.0771484
1709144271234016,-0.229248,-0.760986,0.0566406
1709144271237967,-0.30835,-1.17383,0.0566406
1709144271241902,-0.323486,-0.918945,0.0820312
1709144271245843,-0.323486,-0.918945,0.139404
1709144271249786,-0.236084,-0.958984,0.139404
1709144271253729,-0.342041,-1.0459,-0.0012207
1709144271257652,-0.342041,-1.0459,-0.0324707
1709144271261594,-0.28418,-0.881104,0.0925293
1709144271265603,-0.302979,-1.27222,0.11499
1709144271269546,-0.302979,-1.27222,0.0966797
1709144271273521,-0.331299,-0.98999,0.0966797
1709144271277454,-0.368408,-0.994141,0.108643
1709144271281356,-0.243408,-0.994141,0.111816
1709144271285311,-0.287109,-0.900146,0.0493164
1709144271289310,-0.2854,-0.858643,0.112549
1709144271293213,-0.2854,-0.858643,0.0627441
1709144271297137,-0.313477,-1.13037,0.125244
1709144271301078,-0.342773,-0.872314,0.0722656
1709144271305040,-0.342773,-0.872314,0.0722656
1709144271308975,-0.287354,-0.943359,0.0878906
1709144271312906,-0.287354,-0.81665,0.0793457
1709144271316823,-0.327393,-0.81665,0.0793457
1709144271320772,-0.345459,-1.00439,0.122559
1709144271324752,-0.345459,-1.17334,0.0849609
1709144271328657,-0.362549,-1.17334,0.0849609
1709144271332594,-0.327148,-0.840088,0.123291
1709144271336538,-0.327148,-0.967529,0.0842285
1709144271340509,-0.284912,-0.967529,0.0842285
1709144271344445,-0.41333,-1.00732,0.0578613
1709144271348370,-0.41333,-1.0603,0.194336
1709144271352293,-0.284668,-0.997803,0.194336
1709144271356232,-0.365723,-1.09668,0.0766602
1709144271360186,-0.365723,-1.10767,0.0581055
1709144271364103,-0.380859,-0.795166,0.0581055
1709144271368101,-0.269043,-0.91333,0.146973
1709144271372017,-0.269043,-0.891602,0.0458984
1709144271376017,-0.437988,-1.0791,0.0458984
1709144271379987,-0.360352,-0.901855,0.108887
1709144271383880,-0.360352,-0.901855,0.115967
1709144271387844,-0.3396,-0.969727,0.115967
1709144271391763,-0.345703,-0.691162,0.0576172
1709144271395740,-0.345703,-0.691162,0.060791
1709144271399623,-0.419678,-1.125,0.060791
1709144271403624,-0.414062,-1.04688,0.0895996
1709144271407535,-0.414062,-1.04688,0.150391
1709144271411459,-0.325439,-0.865479,0.150391
1709144271415353,-0.345703,-0.863037,0.0134277
1709144271419316,-0.345703,-0.863037,0.0180664
1709144271423260,-0.388672,-0.717773,0.0805664
1709144271427184,-0.390625,-1.03052,0.144287
1709144271431114,-0.328125,-1.03052,0.133789
1709144271435054,-0.457764,-0.865723,0.0712891
1709144271439008,-0.470703,-0.770752,0.0864258
1709144271442941,-0.408203,-0.770752,0.0812988
1709144271446918,-0.417969,-0.882324,0.0812988
1709144271450816,-0.392578,-0.870361,0.0979004
1709144271454808,-0.455078,-0.870361,0.0979004
1709144271458708,-0.412842,-0.995605,0.0549316
1709144271462660,-0.412842,-0.828857,0.0700684
1709144271466576,-0.427246,-0.828857,0.0700684
1709144271470485,-0.303223,-0.70874,0.160156
1709144271474457,-0.303223,-1.02295,-0.0148926
1709144271478423,-0.508057,-1.02295,-0.0148926
1709144271482303,-0.480713,-0.976074,0.106201
1709144271486382,-0.480713,-0.916992,0.170898
1709144271490327,-0.364258,-0.916992,0.170898
1709144271494273,-0.552246,-0.927246,-0.0263672
1709144271498190,-0.552246,-0.914795,0.121582
1709144271502128,-0.436279,-0.914795,0.121582
1709144271506087,-0.454834,-1.09521,0.134766
1709144271510047,-0.454834,-1.07373,0.112793
1709144271514004,-0.44751,-0.82373,0.112793
1709144271517925,-0.435791,-0.919434,0.0224609
1709144271521854,-0.435791,-0.918701,0.114258
1709144271525769,-0.458252,-0.918701,0.114258
1709144271529759,-0.361572,-0.897705,0.148438
1709144271533754,-0.361572,-0.897705,0.0151367
1709144271537736,-0.493896,-0.962646,0.0151367
1709144271541676,-0.461426,-0.702148,0.0878906
1709144271545610,-0.461426,-0.702148,0.166992
1709144271549592,-0.384521,-0.766113,0.166992
1709144271553520,-0.561035,-0.882812,0.0180664
1709144271557436,-0.561035,-0.882812,0.0783691
1709144271561383,-0.514648,-0.838623,0.0783691
1709144271565319,-0.45459,-0.819092,0.101562
1709144271569280,-0.45459,-0.819092,0.0891113
1709144271573203,-0.507568,-0.65918,0.0891113
1709144271577137,-0.464355,-1.01929,0.105713
1709144271581082,-0.464355,-1.01929,0.0646973
1709144271585037,-0.545898,-0.871094,0.0646973
1709144271588998,-0.428711,-0.70874,0.137207
1709144271592904,-0.428711,-0.70874,0.125732
1709144271596859,-0.485107,-0.832764,0.0632324
1709144271600761,-0.470215,-0.930908,0.0444336
1709144271604756,-0.595215,-0.930908,0.0158691
1709144271608678,-0.506836,-0.986084,0.140869
1709144271612670,-0.529297,-0.896484,0.0827637
1709144271616589,-0.529297,-0.896484,0.0827637
1709144271620540,-0.451416,-0.739258,0.0576172
1709144271624448,-0.465332,-1.02271,-0.00366211
1709144271628349,-0.277832,-1.02271,-0.00366211
1709144271632304,-0.907227,-0.880859,-0.584229
1709144271636256,-0.907227,-0.990479,0.083252
1709144271640239,-0.627197,-0.990479,0.083252
1709144271644207,-0.313232,-0.781738,0.342041
1709144271648137,-0.313232,-0.734131,0.22583
1709144271652064,-0.613281,-0.734131,0.22583
1709144271655998,-0.508545,-1.09839,0.652344
1709144271659942,-0.508545,-0.716553,0.236328
1709144271663916,-0.598633,-0.716553,0.236328
1709144271667808,-0.476074,-0.677002,0.304199
1709144271671752,-0.476074,-0.660156,0.432129
1709144271675695,-0.546875,-0.785156,0.432129
1709144271679639,-0.509521,-0.709717,0.23999
1709144271683577,-0.509521,-0.718506,0.0185547
1709144271687520,-0.592285,-0.843506,0.0185547
1709144271691473,-0.586426,-0.584473,-0.223633
1709144271695439,-0.586426,-0.580078,-0.272461
1709144271699349,-0.619385,-0.705078,-0.272461
1709144271703303,-0.621094,-0.807373,-0.121582
1709144271707230,-0.621094,-0.807373,-0.174561
1709144271711197,-0.583008,-0.710693,-0.174561
1709144271715118,-0.62085,-0.789551,-0.110596
1709144271719090,-0.62085,-0.789551,0.059082
1709144271723033,-0.546143,-0.562988,0.059082
1709144271726912,-0.640625,-1.01562,0.03125
1709144271730847,-0.640625,-1.01562,0.198975
1709144271734813,-0.654297,-0.869141,0.198975
1709144271738741,-0.479736,-0.675293,0.338623
1709144271742720,-0.479736,-0.675293,0.334717
1709144271746680,-0.606934,-0.781982,0.209717
1709144271750624,-0.594238,-0.860596,0.207275
1709144271754641,-0.656738,-0.860596,0.193115
1709144271758582,-0.59668,-0.967285,0.193115
1709144271762517,-0.608887,-0.762451,0.144287
1709144271766450,-0.608887,-0.762451,0.160156
1709144271770403,-0.552979,-0.601807,0.0351562
1709144271774334,-0.504395,-0.908936,-0.0166016
1709144271778251,-0.691895,-0.908936,-0.0166016
1709144271782228,-0.596924,-0.674072,0.0773926
1709144271786166,-0.606689,-0.663086,-0.0393066
1709144271790100,-0.606689,-0.663086,-0.0393066
1709144271794050,-0.686279,-0.651123,-0.0727539
1709144271798007,-0.686279,-0.687256,0.0554199
1709144271801950,-0.632568,-0.687256,0.0554199
1709144271805884,-0.699707,-0.929443,0.09375
1709144271809830,-0.699707,-0.661377,0.121338
1709144271813770,-0.671387,-0.661377,0.121338
1709144271817785,-0.587891,-0.833984,0.152588
1709144271821706,-0.587891,-0.760254,0.138916
1709144271825636,-0.7146,-0.760254,0.138916
1709144271829548,-0.552002,-0.731934,0.224365
1709144271833484,-0.552002,-0.701904,0.0964355
1709144271837449,-0.662109,-0.826904,0.0964355
1709144271841406,-0.683838,-0.616455,0.129883
1709144271845349,-0.683838,-0.574951,0.16333
1709144271849270,-0.5896,-0.699951,0.16333
1709144271853229,-0.74707,-0.687744,0.00415039
1709144271857134,-0.74707,-0.745605,0.0129394
1709144271861063,-0.63208,-0.683105,0.0129394
1709144271865062,-0.73291,-0.680176,-0.0283203
1709144271869011,-0.73291,-0.680176,0.128174
1709144271872981,-0.612793,-0.532227,0.128174
1709144271876892,-0.721436,-0.891602,0.0148926
1709144271880866,-0.721436,-0.891602,-0.0109863
1709144271884813,-0.777344,-0.791748,-0.0109863
1709144271888714,-0.60083,-0.671631,0.127441
1709144271892653,-0.60083,-0.671631,0.0651855
1709144271896621,-0.680176,-0.69043,0.0651855
1709144271900578,-0.69751,-0.709961,0.15625
1709144271904529,-0.69751,-0.709961,0.17334
1709144271908459,-0.688477,-0.899902,0.17334
1709144271912427,-0.667236,-0.552734,0.147461
1709144271916377,-0.667236,-0.552734,0.17749
1709144271920271,-0.633301,-0.467041,0.11499
1709144271924210,-0.676025,-0.767822,0.0598144
1709144271928149,-0.801025,-0.767822,0.0483398
1709144271932084,-0.691406,-0.602539,0.17334
1709144271936058,-0.711914,-0.564697,0.0703125
1709144271939992,-0.711914,-0.564697,0.0703125
1709144271943916,-0.756104,-0.611816,-0.00805664
1709144271947817,-0.780273,-0.553711,-0.00585938
1709144271951763,-0.717773,-0.553711,-0.00585938
1709144271955741,-0.741943,-0.769775,0.0473633
1709144271959688,-0.741943,-0.588135,0.0688477
1709144271963641,-0.740723,-0.588135,0.0688477
1709144271967595,-0.772217,-0.818359,0.0107422
1709144271971538,-0.772217,-0.665771,0.134521
1709144271975555,-0.717285,-0.665771,0.134521
1709144271979491,-0.662354,-0.800293,0.130127
1709144271983409,-0.662354,-0.865967,0.0444336
1709144271987365,-0.782227,-0.865967,0.0444336
1709144271991347,-0.696045,-0.645264,0.205566
1709144271995244,-0.696045,-0.77002,0.231201
1709144271999174,-0.642822,-0.77002,0.231201
1709144272003117,-0.865723,-0.764893,0.0537109
1709144272007064,-0.865723,-0.798828,0.115723
1709144272011058,-0.681396,-0.673828,0.115723
1709144272014989,-0.804443,-0.605469,0.0334473
1709144272018914,-0.804443,-0.610596,0.145508
1709144272022863,-0.663574,-0.423096,0.145508
1709144272026821,-0.773926,-0.710938,0.0280762
1709144272030760,-0.773926,-0.710938,-0.0227051
1709144272034676,-0.834229,-0.617432,-0.0227051
1709144272038634,-0.682617,-0.439209,0.0827637
1709144272042548,-0.682617,-0.439209,0.0598144
1709144272046521,-0.758545,-0.463867,0.0598144
1709144272050486,-0.709961,-0.395996,0.0893555
1709144272054401,-0.709961,-0.395996,0.0227051
1709144272058341,-0.834717,-0.714844,0.0227051
1709144272062288,-0.77832,-0.432373,0.134033
1709144272066227,-0.77832,-0.432373,0.139404
1709144272070139,-0.682861,-0.366699,0.139404
1709144272074092,-0.935059,-0.80957,0.0397949
1709144272078040,-0.935059,-0.80957,0.0112305
1709144272082000,-0.780029,-0.580811,0.19873
1709144272085974,-0.75708,-0.495605,0.137695
1709144272089918,-0.69458,-0.495605,0.149658
1709144272093844,-0.860352,-0.560791,0.0246582
1709144272097786,-0.855713,-0.665039,0.0952148
1709144272101762,-0.793213,-0.665039,0.0893555
1709144272105699,-0.841553,-0.715576,0.0893555
1709144272109641,-0.823975,-0.432861,0.0622559
1709144272113574,-0.761475,-0.432861,0.0622559
1709144272117522,-0.769287,-0.589844,0.0163574
1709144272121463,-0.769287,-0.548828,0.00048828
1709144272125437,-0.888184,-0.548828,0.00048828
1709144272129328,-0.731934,-0.551514,0.12915
1709144272133264,-0.731934,-0.591309,0.00830078
1709144272137227,-0.85791,-0.591309,0.00830078
1709144272141185,-0.847168,-0.493896,0.0788574
1709144272145138,-0.847168,-0.572998,0.163574
1709144272149098,-0.754639,-0.572998,0.163574
1709144272153071,-0.875732,-0.596436,0.0805664
1709144272156948,-0.875732,-0.583252,0.0947266
1709144272160905,-0.787598,-0.583252,0.0947266
1709144272164854,-0.847168,-0.548584,0.0930176
1709144272168817,-0.847168,-0.549805,0.225342
1709144272172793,-0.724609,-0.299805,0.225342
1709144272176712,-0.858154,-0.709229,0.0681152
1709144272180689,-0.858154,-0.724609,0.059082
1709144272184600,-0.878906,-0.474609,0.059082
1709144272188533,-0.76709,-0.414307,0.0541992
1709144272192484,-0.76709,-0.391113,0.0637207
1709144272196504,-0.866943,-0.453613,0.0637207
1709144272200468,-0.781982,-0.436279,0.0976562
1709144272204418,-0.781982,-0.436279,-0.0136719
1709144272208368,-0.86792,-0.649902,-0.0136719
1709144272212296,-0.824951,-0.384766,0.0783691
1709144272216285,-0.824951,-0.384766,0.0898438
1709144272220211,-0.731201,-0.388184,0.0898438
1709144272224150,-1.00586,-0.724609,0.015625
1709144272228090,-1.00586,-0.724609,0.16626
1709144272232006,-0.77002,-0.463379,0.16626
1709144272235963,-0.848145,-0.537842,0.0739746
1709144272239911,-0.848145,-0.537842,0.0974121
1709144272243862,-0.906738,-0.459229,0.0974121
1709144272247807,-0.81665,-0.575195,0.152344
1709144272251741,-0.81665,-0.575195,0.15625
1709144272255683,-0.91748,-0.651855,0.09375
1709144272259638,-0.93457,-0.34668,0.0917969
1709144272263575,-0.80957,-0.34668,0.106445
1709144272267488,-0.858154,-0.438232,0.0439453
1709144272271427,-0.862061,-0.406982,0.0683594
1709144272275365,-0.924561,-0.406982,0.0683594
1709144272279309,-0.801514,-0.411377,0.0942383
1709144272283247,-0.807617,-0.477051,0.00585938
1709144272287186,-0.932617,-0.477051,0.00585938
1709144272291136,-0.849609,-0.347656,0.0610352
1709144272295087,-0.849609,-0.378418,0.0693359
1709144272299037,-0.838379,-0.378418,0.0693359
1709144272302976,-0.902588,-0.414551,0.0908203
1709144272306986,-0.902588,-0.438721,0.0539551
1709144272310936,-0.873291,-0.438721,0.0539551
1709144272314877,-0.910645,-0.48584,0.0810547
1709144272318817,-0.910645,-0.317139,0.181396
1709144272322766,-0.830811,-0.317139,0.181396
1709144272326707,-0.864258,-0.533936,0.0859375
1709144272330644,-0.864258,-0.562012,0.0847168
1709144272334604,-0.920654,-0.499512,0.0847168
1709144272338550,-0.840088,-0.408936,0.111572
1709144272342502,-0.840088,-0.406738,0.118896
1709144272346464,-0.871094,-0.406738,0.118896
1709144272350430,-0.88916,-0.382812,0.0727539
1709144272354362,-0.88916,-0.43457,0.013916
1709144272358294,-0.918945,-0.49707,0.013916
1709144272362233,-0.90918,-0.300049,0.0788574
1709144272366170,-0.90918,-0.287109,0.349121
1709144272370129,-0.397217,-0.224609,0.349121
1709144272374055,-1.81055,-0.658203,-1.24585
1709144272377964,-1.81055,-0.658203,0.854248
1709144272381901,-0.204834,-0.490234,0.854248
1709144272385904,-1.35742,-0.158447,-0.130615
1709144272389881,-1.35742,-0.158447,1.01074
1709144272393814,-0.641846,-0.425781,1.01074
1709144272397762,-0.935547,-0.178955,-0.221436
1709144272401714,-0.935547,-0.178955,0.0817871
1709144272405651,-1.08423,-0.458984,0.0817871
1709144272409590,-0.628906,-0.313477,0.828613
1709144272413530,-0.628906,-0.313477,0.843018
1709144272417457,-1.02246,-0.215332,0.0305176
1709144272421388,-1.02148,-0.320312,0.157959
1709144272425325,-0.833984,-0.320312,0.177979
1709144272429258,-1.04077,-0.257812,-0.697021
1709144272433191,-1.03125,-0.428467,0.0776367
1709144272437117,-0.90625,-0.428467,0.0820312
1709144272441051,-0.824219,-0.266357,0.0820312
1709144272444999,-0.82666,-0.311035,-0.417969
1709144272448937,-1.01416,-0.311035,-0.417969
1709144272452896,-0.934326,-0.371338,-0.195312
1709144272456833,-0.934326,-0.348145,-0.154785
1709144272460755,-0.983154,-0.348145,-0.154785
1709144272464733,-0.822998,-0.447754,0.563477
1709144272468642,-0.822998,-0.0507812,0.185791
1709144272472610,-0.881104,-0.0507812,0.185791
1709144272476537,-0.960938,-0.418701,0.0505371
1709144272480479,-0.960938,-0.257812,0.385742
1709144272484413,-0.949707,-0.257812,0.385742
1709144272488406,-0.84668,-0.171875,0.487305
1709144272492364,-0.84668,-0.181641,0.39917
1709144272496376,-0.896973,-0.369141,0.39917
1709144272500324,-1.01855,-0.178223,-0.154541
1709144272504212,-1.01855,-0.128174,0.00585938
1709144272508149,-0.944824,-0.440674,0.00585938
1709144272512122,-0.897217,-0.146484,0.132568
1709144272516042,-0.897217,-0.163574,-0.0202637
1709144272519991,-0.862793,-0.163574,-0.0202637
1709144272523924,-1.02612,-0.410889,-0.325195
1709144272527865,-1.02612,-0.376953,-0.298584
1709144272531795,-0.9375,-0.126953,-0.298584
1709144272535726,-0.906738,-0.304443,0.0837402
1709144272539668,-0.906738,-0.304443,0.0761719
1709144272543597,-0.936035,-0.226562,0.0761719
1709144272547536,-0.939697,-0.286621,0.0227051
1709144272551488,-0.939697,-0.286621,0.0371094
1709144272555456,-1.00366,-0.402832,0.0371094
1709144272559375,-0.886475,-0.24707,0.341309
1709144272563290,-0.886475,-0.24707,0.348877
1709144272567228,-0.94165,-0.444824,0.411377
1709144272571171,-0.94873,-0.275146,0.229492
1709144272575160,-0.94873,-0.275146,0.203369
1709144272579071,-0.909912,-0.374756,0.140869
1709144272583005,-0.877197,-0.382324,0.168945
1709144272586945,-1.0022,-0.382324,0.185547
1709144272590913,-0.841797,-0.128906,0.248047
1709144272594844,-0.847656,-0.235352,-0.0983887
1709144272598823,-0.972656,-0.235352,-0.0773926
1709144272602748,-1.00171,-0.178467,-0.202393
1709144272606777,-1.03394,-0.153564,-0.0632324
1709144272610734,-0.908936,-0.153564,-0.0632324
1709144272614716,-0.982178,-0.252441,0.0129394
1709144272618621,-0.982178,-0.0578613,-0.0378418
1709144272622577,-0.922363,-0.0578613,-0.0378418
1709144272626507,-1.03101,-0.290527,-0.155273
1709144272630456,-1.03101,-0.169922,0.107422
1709144272634371,-0.957031,-0.169922,0.107422
1709144272638309,-0.850098,-0.0112305,0.324463
1709144272642247,-0.850098,-0.126709,0.240234
1709144272646171,-0.98877,-0.126709,0.240234
1709144272650099,-0.966309,-0.151855,0.140625
1709144272654052,-0.966309,-0.178711,0.159424
1709144272658014,-0.978271,-0.178711,0.159424
1709144272661943,-0.926514,-0.020752,0.311768
1709144272665906,-0.926514,-0.0419922,0.19751
1709144272669882,-0.90918,-0.0419922,0.19751
1709144272673854,-1.0542,-0.293213,-0.0583496
1709144272677764,-1.0542,-0.290283,-0.0407715
1709144272681690,-0.906738,-0.0402832,-0.0407715
1709144272685631,-1.01147,-0.178223,-0.0397949
1709144272689561,-1.01147,-0.153564,0.0183105
1709144272693491,-0.937988,-0.0910645,0.0183105
1709144272697427,-0.975098,-0.146484,-0.126465
1709144272701373,-0.975098,-0.146484,-0.120361
1709144272705292,-1.02539,-0.226074,-0.120361
1709144272709264,-0.916016,-0.0473633,0.0856934
1709144272713222,-0.916016,-0.0473633,0.100098
1709144272717188,-0.988281,-0.114258,0.100098
1709144272721106,-0.944824,-0.0163574,0.126465
1709144272725087,-0.944824,-0.0163574,0.118164
1709144272729045,-0.966309,-0.182129,0.118164
1709144272732984,-0.984619,-0.223633,0.22583
1709144272736873,-0.984619,-0.223633,0.199707
1709144272740779,-0.900635,0.0500488,0.262207
1709144272744764,-0.885254,-0.170654,0.144531
1709144272748662,-1.01025,-0.170654,0.157715
1709144272752635,-0.954102,-0.290771,0.0952148
1709144272756563,-0.959229,-0.164795,0.0939941
1709144272760534,-0.959229,-0.164795,0.0939941
1709144272764452,-0.989502,-0.223877,0.0708008
1709144272768424,-0.980469,0.0266113,-0.0117188
1709144272772345,-0.917969,0.0266113,-0.0117188
1709144272776246,-1.05908,-0.290283,-0.117188
1709144272780202,-1.05908,-0.0288086,-0.0249023
1709144272784144,-0.933594,-0.0288086,-0.0249023
1709144272788081,-0.955322,-0.046875,0.0336914
1709144272791986,-0.955322,-0.137939,0.0178223
1709144272795923,-1.00317,-0.137939,0.0178223
1709144272799885,-0.94165,-0.0480957,0.029541
1709144272803805,-0.94165,-0.185547,0.117676
1709144272807749,-1.01245,-0.185547,0.117676
1709144272811722,-0.895752,0.0449219,0.240967
1709144272815687,-0.895752,0.0126953,0.187012
1709144272819581,-0.975586,0.0126953,0.187012
1709144272823515,-1.01978,-0.209473,0.143555
1709144272827522,-1.01978,-0.19751,0.15625
1709144272831444,-0.905029,0.11499,0.15625
1709144272835376,-1.01733,-0.0507812,0.155273
1709144272839308,-1.01733,-0.0617676,0.116211
1709144272843237,-0.935303,0.125732,0.116211
1709144272847180,-0.989502,-0.0163574,-0.0373535
1709144272851126,-0.989502,-0.0163574,-0.0458984
1709144272855113,-0.997559,0.060791,-0.0458984
1709144272859049,-0.925049,0.227295,0.0144043
1709144272863008,-0.925049,0.227295,0.00024414
1709144272866876,-1.01978,0.00024414,0.00024414
1709144272870791,-0.939209,0.12793,-0.0317383
1709144272874763,-0.939209,0.12793,-0.0065918
1709144272878653,-1.00781,-0.00219727,-0.0065918
1709144272882625,-0.975342,-0.0649414,0.105957
1709144272886517,-0.975342,-0.0649414,0.101074
1709144272890482,-0.912598,0.213135,0.163574
1709144272894407,-0.904541,-0.015625,0.114746
1709144272898308,-1.02954,-0.015625,0.0732422
1709144272902266,-0.929443,0.0231934,0.135742
1709144272906176,-0.876465,-0.00097656,0.155762
1709144272910092,-1.00146,-0.00097656,0.155762
1709144272914046,-0.968506,0.123291,0.171143
1709144272918004,-0.968506,0.28125,0.115967
1709144272921918,-0.930664,0.28125,0.115967
1709144272925821,-1.052,-0.251465,0.0151367
1709144272929774,-1.052,0.148682,0.0371094
1709144272933706,-0.91333,0.148682,0.0371094
1709144272937746,-1.00977,0.0307617,0.0568848
1709144272941637,-1.00977,-0.00756836,0.0144043
1709144272945535,-0.984131,-0.00756836,0.0144043
1709144272949504,-0.962158,-0.0246582,-0.0214844
1709144272953466,-0.962158,-0.0253906,0.229248
1709144272957346,-0.809326,-0.0878906,0.229248
1709144272961328,-1.43994,-0.106445,-1.03052
1709144272965243,-1.43994,-0.107422,0.45166
1709144272969175,-0.562256,0.0800781,0.45166
1709144272973094,-1.41016,-0.0336914,-0.136475
1709144272977030,-1.41016,-0.0429688,0.924561
1709144272980951,-0.496582,0.207031,0.924561
1709144272984842,-1.1499,0.116455,0.0444336
1709144272988810,-1.1499,0.116455,0.212891
1709144272992702,-1.04272,0.126709,0.212891
1709144272996648,-0.742676,0.0737305,0.769287
1709144273000585,-0.742676,0.0737305,0.161133
1709144273004504,-1.12842,-0.00292969,0.161133
1709144273008485,-0.772217,0.276855,0.284912
1709144273012402,-0.772217,0.276855,0.294189
1709144273016327,-1.24829,0.0908203,-0.580811
1709144273020253,-1.23682,0.193848,0.142334
1709144273024199,-0.736816,0.193848,0.154785
1709144273028159,-1.04761,0.0263672,-0.282715
1709144273032091,-1.0127,0.0378418,-0.440674
1709144273036005,-1.0127,0.0378418,-0.464111
1709144273039938,-0.948975,0.365723,-0.339111
1709144273043885,-0.970703,0.134033,-0.181152
1709144273047871,-1.0957,0.134033,-0.181152
1709144273051842,-0.735107,0.0847168,0.444336
1709144273055710,-0.735107,0.0490723,-0.045166
1709144273059681,-1.12695,0.0490723,-0.045166
1709144273063607,-0.883545,0.260986,0.330566
1709144273067536,-0.883545,0.377441,0.453857
1709144273071457,-0.970703,0.377441,0.453857
1709144273075394,-0.930664,-0.0761719,0.621582
1709144273079295,-0.930664,0.203613,0.3479
1709144273083263,-0.859863,0.203613,0.3479
1709144273087166,-1.11963,0.240967,-0.027832
1709144273091117,-1.11963,0.222412,0.272705
1709144273095051,-0.837158,0.222412,0.272705
1709144273098945,-1.00537,0.0805664,-0.048584
1709144273102906,-1.00537,0.0805664,-0.176025
1709144273106846,-0.962891,0.0805664,-0.176025
1709144273110759,-0.969238,0.314453,-0.438721
1709144273114743,-0.969238,0.314453,-0.220215
1709144273118632,-1.03125,0.107666,-0.220215
1709144273122605,-0.86499,0.144043,-0.0427246
1709144273126543,-0.86499,0.144043,-0.188232
1709144273130464,-1.03735,0.261963,-0.188232
1709144273134406,-0.981934,0.150879,0.00830078
1709144273138329,-0.981934,0.150879,0.17627
1709144273142282,-0.90625,0.353271,0.17627
1709144273146205,-0.948242,0.136719,0.432617
1709144273150168,-0.948242,0.136719,0.40918
1709144273154078,-0.88623,0.180176,0.34668
1709144273158111,-0.97168,0.265381,0.245361
1709144273162084,-0.97168,0.265381,0.192627
1709144273165975,-0.957275,0.205078,0.317627
1709144273169954,-0.940186,0.427246,0.285889
1709144273173888,-0.877686,0.427246,0.266846
1709144273177794,-0.95874,0.064209,0.141846
1709144273181768,-0.938477,0.173828,-0.169434
1709144273185757,-0.938477,0.173828,-0.169434
1709144273189703,-0.965088,0.434082,-0.178467
1709144273193661,-0.983887,0.294678,-0.0681152
1709144273197598,-0.983887,0.294678,-0.0681152
1709144273201619,-0.854492,0.200439,-0.121338
1709144273205567,-0.834717,0.175781,-0.237305
1709144273209535,-1.02222,0.175781,-0.237305
1709144273213471,-0.936035,0.317383,-0.126709
1709144273217384,-0.936035,0.345703,0.200195
1709144273221297,-0.918945,0.345703,0.200195
1709144273225254,-0.956055,0.150879,0.208008
1709144273229184,-0.956055,0.353027,0.153809
1709144273233097,-0.904541,0.353027,0.153809
1709144273237040,-1.01587,0.288818,0.233643
1709144273240935,-1.01587,0.263672,0.401855
1709144273244878,-0.852295,0.263672,0.401855
1709144273248855,-0.912598,0.308594,0.270264
1709144273252814,-0.912598,0.257812,0.0705566
1709144273256697,-0.974854,0.195312,0.0705566
1709144273260656,-0.854736,0.398682,0.0266113
1709144273264557,-0.854736,0.430176,0.0249023
1709144273268488,-0.973633,0.180176,0.0249023
1709144273272447,-0.888184,0.334961,-0.0708008
1709144273276393,-0.888184,0.334961,-0.172363
1709144273280357,-0.965088,0.253906,-0.172363
1709144273284281,-0.984131,0.188477,-0.147705
1709144273288226,-0.984131,0.188477,-0.0205078
1709144273292157,-0.859375,0.412354,-0.0205078
1709144273296113,-0.996338,0.345947,0.00927734
1709144273300122,-0.996338,0.345947,0.0534668
1709144273304011,-0.86499,0.298584,0.0534668
1709144273307956,-0.92749,0.391846,0.114502
1709144273311939,-0.92749,0.391846,0.220459
1709144273315887,-0.927734,0.346191,0.220459
1709144273319821,-0.848877,0.687012,0.294434
1709144273323796,-0.848877,0.687012,0.296143
1709144273327716,-0.945557,0.204834,0.233643
1709144273331648,-0.979248,0.448242,0.117432
1709144273335606,-0.854248,0.448242,0.105225
1709144273339537,-0.945557,0.501709,0.105225
1709144273343487,-0.975586,0.420898,0.173584
1709144273347442,-0.913086,0.420898,0.173584
1709144273351403,-0.849365,0.323242,0.0427246
1709144273355324,-0.863037,0.194092,-0.128662
1709144273359271,-0.988037,0.194092,-0.128662
1709144273363204,-0.860107,0.407227,-0.112793
1709144273367099,-0.860107,0.24707,0.0544434
1709144273371016,-0.965332,0.24707,0.0544434
1709144273374984,-0.814697,0.148682,0.0361328
1709144273378905,-0.814697,0.29126,-0.108154
1709144273382878,-0.967285,0.29126,-0.108154
1709144273386779,-0.916504,0.313477,0.0715332
1709144273390747,-0.916504,0.35498,0.187744
1709144273394653,-0.869141,0.35498,0.187744
1709144273398590,-0.912354,0.344727,0.138672
1709144273402492,-0.912354,0.330566,0.140625
1709144273406423,-0.862793,0.268066,0.140625
1709144273410400,-0.908691,0.630615,0.104736
1709144273414340,-0.908691,0.663574,0.217529
1709144273418248,-0.880615,0.413574,0.217529
1709144273422259,-0.796875,0.649902,0.0627441
1709144273426171,-0.796875,0.649902,0.0102539
1709144273430151,-0.919189,0.482178,0.0102539
1709144273434099,-0.825195,0.37793,0.0795898
1709144273437981,-0.825195,0.37793,0.012207
1709144273441919,-0.863281,0.667725,0.012207
1709144273445830,-0.920166,0.48877,-0.0158691
1709144273449843,-0.920166,0.48877,-0.0385742
1709144273453752,-0.818848,0.418945,-0.0385742
1709144273457668,-0.912842,0.424561,-0.020752
1709144273461603,-0.912842,0.424561,-0.0480957
1709144273465602,-0.834961,0.469482,0.0769043
1709144273469551,-0.90918,0.752197,0.0578613
1709144273473462,-0.90918,0.752197,0.0288086
1709144273477390,-0.873047,0.280029,0.153809
1709144273481349,-0.858154,0.467041,0.0786133
1709144273485325,-0.795654,0.467041,0.0842285
1709144273489225,-0.93335,0.544678,0.0842285
1709144273493164,-0.934326,0.556885,0.253418
1709144273497105,-0.809326,0.556885,0.253418
1709144273501034,-0.8396,0.428711,0.155762
1709144273504964,-0.870605,0.287354,0.0319824
1709144273508905,-0.870605,0.287354,0.0319824
1709144273512837,-0.865967,0.629639,-0.0280762
1709144273516811,-0.865967,0.450684,0.156738
1709144273520754,-0.889893,0.450684,0.156738
1709144273524685,-0.730469,0.34082,0.102295
1709144273528667,-0.730469,0.469971,-0.134766
1709144273532661,-0.957764,0.469971,-0.134766
1709144273536578,-0.824707,0.370361,0.0324707
1709144273540513,-0.824707,0.544189,0.0263672
1709144273544451,-0.858887,0.544189,0.0263672
1709144273548354,-0.874023,0.526123,0.03125
1709144273552295,-0.874023,0.555176,0.0974121
1709144273556207,-0.765869,0.305176,0.0974121
1709144273560181,-0.842529,0.477783,0.0615234
1709144273564118,-0.842529,0.457275,0.145996
1709144273568036,-0.84668,0.394775,0.145996
1709144273571999,-0.801025,0.726562,0.0710449
1709144273575896,-0.801025,0.734375,0.153809
1709144273579869,-0.881836,0.359375,0.153809
1709144273583813,-0.754639,0.527344,0.137695
1709144273587754,-0.754639,0.527344,0.0290527
1709144273591658,-0.871338,0.658203,0.0290527
1709144273595635,-0.848389,0.637939,0.0629883
1709144273599572,-0.848389,0.637939,0.0703125
1709144273603536,-0.735107,0.47583,0.0703125
1709144273607432,-0.842285,0.490967,0.0112305
1709144273611405,-0.842285,0.490967,0.00366211
1709144273615327,-0.782227,0.645996,0.00366211
1709144273619282,-0.846924,0.79126,0.0275879
1709144273623163,-0.846924,0.79126,0.0305176
1709144273627107,-0.795654,0.431396,0.0930176
1709144273631087,-0.7854,0.499512,0.0227051
1709144273634957,-0.7229,0.499512,0.0454102
1709144273638919,-0.868408,0.62915,-0.0170898
1709144273642936,-0.827637,0.584961,0.163086
1709144273646857,-0.765137,0.584961,0.151367
1709144273650801,-0.767822,0.543701,0.151367
1709144273654733,-0.80249,0.319092,0.0854492
1709144273658689,-0.80249,0.319092,0.0854492
1709144273662584,-0.800293,0.634521,0.0270996
1709144273666545,-0.800293,0.625244,0.130127
1709144273670485,-0.841797,0.625244,0.130127
1709144273674412,-0.700684,0.526123,0.147705
1709144273678304,-0.700684,0.643311,0.00439453
1709144273682207,-0.820557,0.643311,0.00439453
1709144273686136,-0.776611,0.58374,0.0219727
1709144273690072,-0.776611,0.577881,0.0290527
1709144273694058,-0.755859,0.765381,0.0290527
1709144273697978,-0.756592,0.677002,0.0539551
1709144273701893,-0.756592,0.675781,0.0354004
1709144273705810,-0.721924,0.550781,0.0354004
1709144273709733,-0.75,0.754883,0.0251465
1709144273713656,-0.75,0.771729,0.0532227
1709144273717589,-0.795166,0.646729,0.0532227
1709144273721520,-0.762939,0.804932,0.0488281
1709144273725459,-0.762939,0.804932,0.121094
1709144273729385,-0.755615,0.499023,0.121094
1709144273733321,-0.697998,0.561279,0.12207
1709144273737281,-0.697998,0.561279,0.0378418
1709144273741230,-0.797852,0.67627,0.0378418
1709144273745183,-0.826904,0.678223,0.0603027
1709144273749123,-0.826904,0.678223,0.0332031
1709144273753123,-0.678223,0.766357,0.345703
1709144273757020,-1.00977,0.00878906,-0.833252
1709144273760961,-1.00977,0.00878906,-0.874268
1709144273764914,-0.496826,0.764893,0.188232
1709144273768856,-0.454834,0.733154,-0.0334473
1709144273772829,-0.954834,0.733154,-0.0529785
1709144273776739,-0.483398,0.422363,0.759521
1709144273780726,-0.491699,0.794434,0.241943
1709144273784647,-0.679199,0.794434,0.217041
1709144273788559,-0.950195,0.481445,-0.220459
1709144273792498,-0.947754,0.791504,0.712646
1709144273796434,-0.572754,0.791504,0.712646
1709144273800398,-0.685059,0.739502,0.401123
1709144273804344,-0.685059,0.513428,0.0925293
1709144273808254,-0.778809,0.513428,0.0925293
1709144273812182,-0.654053,0.882812,-0.155762
1709144273816123,-0.654053,0.730713,-0.424072
1709144273820054,-0.907471,0.730713,-0.424072
1709144273823999,-0.564941,0.669922,-0.0102539
1709144273827969,-0.564941,0.714844,-0.210449
1709144273831860,-0.703125,0.714844,-0.210449
1709144273835807,-0.75415,0.601318,-0.281006
1709144273839726,-0.75415,0.622314,-0.104492
1709144273843699,-0.661621,0.872314,-0.104492
1709144273847631,-0.738525,0.585449,-0.0473633
1709144273851572,-0.738525,0.569824,0.289307
1709144273855517,-0.592529,0.632324,0.289307
1709144273859440,-0.659424,0.811523,0.312744
1709144273863453,-0.659424,0.793213,0.259766
1709144273867391,-0.729492,0.605713,0.259766
1709144273871347,-0.645752,0.947754,0.252197
1709144273875280,-0.645752,0.947754,0.262451
1709144273879185,-0.727295,0.518555,0.262451
1709144273883146,-0.575684,0.788818,0.294189
1709144273887122,-0.575684,0.788818,0.0246582
1709144273891026,-0.72876,0.832764,0.0246582
1709144273894981,-0.687988,0.718262,-0.0969238
1709144273898931,-0.687988,0.718262,-0.0964355
1709144273902906,-0.623047,0.699219,-0.0964355
1709144273906845,-0.69873,0.571777,-0.123291
1709144273910802,-0.69873,0.571777,-0.0732422
1709144273914730,-0.60376,0.791748,-0.135742
1709144273918672,-0.735107,0.855469,-0.115234
1709144273922630,-0.735107,0.855469,-0.0690918
1709144273926553,-0.603027,0.506348,-0.0065918
1709144273930481,-0.601318,0.732666,0.0114746
1709144273934416,-0.663818,0.732666,0.0498047
1709144273938352,-0.671875,0.746094,0.174805
1709144273942275,-0.670654,0.945557,0.233887
1709144273946236,-0.670654,0.945557,0.233887
1709144273950172,-0.616943,0.819092,0.226318
1709144273954130,-0.616943,0.537598,0.186035
1709144273958033,-0.602783,0.537598,0.186035
1709144273962012,-0.593506,0.932861,0.166016
1709144273965912,-0.593506,0.681885,0.192139
1709144273969896,-0.636719,0.681885,0.192139
1709144273973895,-0.574707,0.872803,0.0209961
1709144273977812,-0.574707,0.767578,-0.0385742
1709144273981749,-0.674316,0.767578,-0.0385742
1709144273985717,-0.558105,0.607666,0.0178223
1709144273989636,-0.558105,0.908447,-0.11377
1709144273993572,-0.663574,0.908447,-0.11377
1709144273997517,-0.647705,0.696777,-0.0297852
1709144274001477,-0.647705,0.687744,0.00366211
1709144274005379,-0.554688,0.687744,0.00366211
1709144274009307,-0.673096,0.709473,0.00830078
1709144274013230,-0.673096,0.742432,0.123535
1709144274017161,-0.58374,0.679932,0.123535
1709144274021140,-0.641846,0.955811,0.0756836
1709144274025059,-0.641846,0.955811,0.213623
1709144274028991,-0.592041,0.556396,0.213623
1709144274032892,-0.526611,0.782715,0.178223
1709144274036831,-0.526611,0.782715,0.0759277
1709144274040762,-0.62085,0.894043,0.0759277
1709144274044724,-0.572754,0.832031,0.126709
1709144274048622,-0.572754,0.832031,0.134766
1709144274052659,-0.47876,0.777588,0.134766
1709144274056651,-0.598389,0.762939,0.0234375
1709144274060601,-0.598389,0.762939,-0.0334473
1709144274064543,-0.567627,0.849609,-0.0334473
1709144274068501,-0.635498,0.991943,-0.0197754
1709144274072463,-0.635498,0.991943,-0.027832
1709144274076397,-0.496582,0.612061,0.034668
1709144274080346,-0.445068,0.830566,-0.0593262
1709144274084274,-0.570068,0.830566,-0.0202637
1709144274088196,-0.541992,0.724609,0.0422363
1709144274092130,-0.532471,0.992188,0.0627441
1709144274096072,-0.532471,0.992188,0.0646973
1709144274099991,-0.560059,0.77124,0.0646973
1709144274103952,-0.533691,0.7146,0.136475
1709144274107852,-0.533691,0.7146,0.136475
1709144274111818,-0.513672,1.04346,0.106689
1709144274115737,-0.513672,0.780273,0.125244
1709144274119691,-0.591797,0.780273,0.125244
1709144274123619,-0.422607,0.999512,0.108154
1709144274127526,-0.422607,0.753174,0.017334
1709144274131493,-0.596924,0.753174,0.017334
1709144274135417,-0.45166,0.902832,0.105713
1709144274139321,-0.45166,1.03882,0.0109863
1709144274143240,-0.5354,1.03882,0.0109863
1709144274147190,-0.515137,0.896484,-0.0078125
1709144274151138,-0.515137,0.887695,0.0349121
1709144274155071,-0.447754,0.700195,0.0349121
1709144274159012,-0.525879,0.801514,0.0437012
1709144274163015,-0.525879,0.780518,0.0446777
1709144274166919,-0.523926,0.780518,0.0446777
1709144274170848,-0.516357,1.0813,-0.00488281
1709144274174765,-0.516357,1.08228,0.150635
1709144274178716,-0.451172,0.519775,0.150635
1709144274182646,-0.443359,0.90332,0.0793457
1709144274186580,-0.443359,0.90332,0.0532227
1709144274190506,-0.551758,0.888184,0.0532227
1709144274194438,-0.508545,1.05542,0.116943
1709144274198365,-0.508545,1.05542,0.104248
1709144274202302,-0.412598,0.7854,0.104248
1709144274206243,-0.490479,0.796631,0.0209961
1709144274210184,-0.490479,0.796631,0.0471191
1709144274214101,-0.435303,0.942871,0.0471191
1709144274218021,-0.388184,1.01514,0.0603027
1709144274221935,-0.513184,1.01514,0.00488281
1709144274225862,-0.455078,0.79248,0.0673828
1709144274229807,-0.458496,0.869385,0.00708008
1709144274233775,-0.458496,0.869385,0.00708008
1709144274237697,-0.466064,0.844238,0.0212402
1709144274241646,-0.459473,0.996582,0.0849609
1709144274245586,-0.459473,0.996582,0.0849609
1709144274249488,-0.426514,0.88501,0.0957031
1709144274253419,-0.426514,0.663818,0.0800781
1709144274257367,-0.479736,0.663818,0.0800781
1709144274261302,-0.37915,1.01709,0.102783
1709144274265246,-0.37915,0.81543,0.0671387
1709144274269182,-0.494141,0.81543,0.0671387
1709144274273196,-0.376465,0.99292,0.0395508
1709144274277180,-0.376465,0.519287,0.119385
1709144274281109,-0.42627,0.519287,0.119385
1709144274285036,-0.38501,0.749023,0.12207
1709144274288975,-0.38501,0.688721,0.00585938
1709144274292909,-0.490967,1.06372,0.00585938
1709144274296837,-0.454102,0.984131,0.0363769
1709144274300753,-0.454102,0.978516,0.079834
1709144274304692,-0.381348,0.728516,0.079834
1709144274308631,-0.433105,0.908691,0.0900879
1709144274312568,-0.433105,0.914795,0.0563965
1709144274316513,-0.379395,0.914795,0.0563965
1709144274320435,-0.437988,1.19507,-0.00366211
1709144274324368,-0.437988,1.19507,0.174316
1709144274328300,-0.294678,0.606201,0.174316
1709144274332219,-0.335205,1.05762,0.00927734
1709144274336148,-0.335205,1.05762,0.0322266
1709144274340060,-0.420654,1.00073,0.0322266
1709144274344004,-0.34375,1.07861,0.0305176
1709144274347911,-0.34375,1.07861,0.00439453
1709144274351805,-0.359619,0.927734,0.00439453
1709144274355771,-0.328125,0.927979,0.0358887
1709144274359754,-0.390625,0.927979,0.0290527
1709144274363654,-0.349609,1.21558,0.0290527
1709144274367593,-0.322021,1.18506,0.0175781
1709144274371496,-0.447021,1.18506,0.0175781
1709144274375432,-0.24707,0.851807,0.107422
1709144274379246,-0.240967,1.02075,0
1709144274383193,-0.365967,1.02075,0
1709144274387127,-0.272949,0.938477,0.160645
1709144274391059,-0.272949,1.14551,0.0671387
1709144274394993,-0.344727,1.14551,0.0671387
1709144274398931,-0.398193,1.06982,0.050293
1709144274402888,-0.398193,0.640625,0.115723
1709144274406778,-0.27124,0.640625,0.115723
1709144274410700,-0.33374,1.05762,0.0339356
1709144274414635,-0.33374,1.0542,0.0529785
1709144274418592,-0.358643,0.866699,0.0529785
1709144274422520,-0.360352,1.12866,0.0356445
1709144274426447,-0.360352,1.17505,0.0949707
1709144274430369,-0.300537,0.800049,0.0949707
1709144274434300,-0.31665,0.692139,0.0151367
1709144274438220,-0.31665,0.692139,0.0170898
1709144274442124,-0.337158,1.04736,0.0170898
1709144274446071,-0.326416,0.871094,0.127441
1709144274450005,-0.326416,0.871094,-0.0368652
1709144274453900,-0.374512,1.26025,-0.0368652
1709144274457835,-0.283203,0.751221,0.14502
1709144274461717,-0.283203,0.751221,0.182129
1709144274465652,-0.231445,0.931396,0.119629
1709144274469591,-0.234375,1.21509,-0.0263672
1709144274473511,-0.359375,1.21509,-0.0305176
1709144274477476,-0.250488,0.920166,0.156982
1709144274481368,-0.30249,1.06836,0.0861816
1709144274485310,-0.17749,1.06836,0.112549
1709144274489229,-0.353271,0.751221,-0.0124512
1709144274493228,-0.3479,0.975586,0.144531
1709144274497167,-0.2229,0.975586,0.144531
1709144274501095,-0.355713,1.2439,0.0205078
1709144274505020,-0.355713,1.11255,0.00097656
1709144274508974,-0.400879,1.11255,0.00097656
1709144274512880,-0.147461,0.967773,0.111816
1709144274516803,-0.147461,0.842529,0.0249023
1709144274520774,-0.262451,0.842529,0.0249023
1709144274524712,-0.22998,0.965332,0.0288086
1709144274528633,-0.22998,1.16064,0.0551758
1709144274532570,-0.225586,1.16064,0.0551758
1709144274536471,-0.303223,1.00464,0.0458984
1709144274540389,-0.303223,1.03638,0.100098
1709144274544322,-0.174316,0.911377,0.100098
1709144274548278,-0.258545,0.839844,0.0866699
1709144274552223,-0.258545,0.817383,0.0444336
1709144274556178,-0.258545,1.12988,0.0444336
1709144274560105,-0.270752,1.23926,0.0153809
1709144274564012,-0.270752,1.23926,0.0695801
1709144274567966,-0.258301,1.08008,0.0695801
1709144274571890,-0.157471,1.01416,0.0612793
1709144274575790,-0.157471,1.01416,0.0864258
1709144274579724,-0.207275,0.759277,0.0864258
1709144274583639,-0.190186,1.00903,0.0371094
1709144274587505,-0.190186,1.00903,0
1709144274591361,-0.273193,1.25415,0
1709144274595313,-0.287598,0.940674,0.0622559
1709144274599254,-0.287598,0.940674,0.0351562
1709144274603258,-0.149902,1.04639,0.0976562
1709144274607178,-0.175537,0.821533,0.0439453
1709144274611023,-0.238037,0.821533,0
1709144274614911,-0.197754,1.0769,0.0625
1709144274618849,-0.197754,1.28149,0.0397949
1709144274622778,-0.255371,1.28149,0.0397949
1709144274626723,-0.260498,0.986572,0.0859375
1709144274630654,-0.260498,1.22046,0.0458984
1709144274634612,-0.194336,1.22046,0.0458984
1709144274638551,-0.143555,0.666504,0.115234
1709144274642462,-0.143555,0.881348,0.0461426
1709144274646391,-0.165527,0.881348,0.0461426
1709144274650337,-0.236572,1.15454,0.0349121
1709144274654255,-0.236572,1.17188,0.0681152
1709144274658152,-0.262939,1.17188,0.0681152
1709144274662076,-0.238281,1.22656,0.0566406
1709144274666017,-0.238281,1.22998,0.100342
1709144274669969,-0.140137,0.97998,0.100342
1709144274673885,-0.0891113,0.701416,0.0517578
1709144274677792,-0.0891113,0.701416,0.0480957
1709144274681728,-0.132812,0.906982,0.0480957
1709144274685642,-0.200439,0.889404,0.0571289
1709144274689598,-0.200439,0.889404,0.0266113
1709144274693521,-0.244629,1.28027,0.0266113
1709144274697481,-0.273926,1.0542,0.0979004
1709144274701433,-0.273926,1.0542,0.097168
1709144274705377,-0.105713,0.995605,0.097168
1709144274709305,-0.132568,0.781982,0.0239258
1709144274713279,-0.132568,0.781982,0.0178223
1709144274717203,-0.125,0.772949,0.0803223
1709144274721125,-0.113037,1.31909,0.0319824
1709144274725055,-0.175537,1.31909,0.00756836
1709144274728984,-0.243652,1.28467,0.0700684
1709144274732911,-0.199707,1.23096,0.0791016
1709144274736826,-0.199707,1.23096,0.0791016
1709144274740756,-0.105225,1.125,0.0654297
1709144274744695,-0.0727539,0.793213,0.0861816
1709144274748638,-0.0727539,0.793213,0.0861816
1709144274752579,-0.0942383,1.16357,0.0366211
1709144274756453,-0.0942383,1.07812,0.0595703
1709144274760421,-0.152344,1.07812,0.0595703
1709144274764354,-0.184814,1.13965,0.0427246
1709144274768253,-0.184814,1.18433,0.0708008
1709144274772179,-0.166504,1.18433,0.0708008
1709144274776083,-0.126953,0.861816,0.0793457
1709144274780048,-0.126953,0.843018,0.0258789
1709144274783958,-0.102051,0.968018,0.0258789
1709144274787928,-0.0966797,0.771729,0.0712891
1709144274791881,-0.0966797,0.764648,0.0290527
1709144274795806,-0.101074,0.952148,0.0290527
1709144274799715,-0.202393,1.14185,0.0244141
1709144274803614,-0.202393,1.14624,0.115479
1709144274807525,-0.150391,1.02124,0.115479
1709144274811443,-0.154785,1.23364,0.029541
1709144274815383,-0.154785,1.23364,0.0534668
1709144274819320,-0.110596,0.929932,0.0534668
1709144274823328,-0.0163574,0.89502,0.0932617
1709144274827277,-0.0163574,0.89502,0.0585938
1709144274831232,-0.0556641,0.997559,0.0585938
1709144274835166,-0.119385,1.00879,0.0610352
1709144274839109,-0.119385,1.00879,0.0576172
1709144274843034,-0.131836,1.28076,0.0576172
1709144274846927,-0.185303,1.20581,0.0471191
1709144274850856,-0.185303,1.20581,0.013916
1709144274854796,-0.136719,1.20508,0.013916
1709144274858699,-0.182129,1.16309,0.0563965
1709144274862617,-0.0571289,1.16309,0.0598144
1709144274866555,-0.0544434,0.971924,0.0598144
1709144274870555,-0.0151367,0.995361,0.0534668
1709144274874549,-0.0151367,0.995361,0.0534668
1709144274878473,-0.0595703,0.822754,0.0715332
1709144274882396,-0.0400391,0.873047,0.0432129
1709144274886330,-0.102539,0.873047,0.0432129
1709144274890264,-0.133789,1.04688,0.0588379
1709144274894203,-0.133789,0.999512,0.0837402
1709144274898130,-0.173828,0.999512,0.0837402
1709144274902096,-0.181641,1.26929,0.0358887
1709144274906017,-0.181641,0.979004,0.0969238
1709144274909952,-0.0686035,0.979004,0.0969238
1709144274913912,-0.0493164,0.952148,0.0361328
1709144274917829,-0.0493164,0.942627,0.0397949
1709144274921757,-0.0258789,1.13013,0.0397949
1709144274925741,-0.0119629,0.872803,0.0991211
1709144274929664,-0.0119629,0.829834,0.0473633
1709144274933564,-0.109375,1.20483,0.0473633
1709144274937498,-0.124512,1.04858,0.0917969
1709144274941460,-0.124512,1.05835,0.0361328
1709144274945352,-0.112549,1.12085,0.0361328
1709144274949272,-0.12207,1.17773,0.0410156
1709144274953186,-0.12207,1.17773,0.0593262
1709144274957120,-0.0698242,0.964844,0.0593262
1709144274961059,-0.0319824,1.13501,0.0522461
1709144274964972,-0.0319824,1.13501,0.0717773
1709144274968895,-0.0620117,0.903564,0.0717773
1709144274972840,-0.0410156,1.12866,0.0432129
1709144274976727,-0.0410156,1.12866,0.0419922
1709144274980704,-0.0361328,1.13721,0.0419922
1709144274984650,-0.0463867,0.864258,0.0742188
1709144274988594,-0.0463867,0.864258,0.0639648
1709144274992533,-0.0388184,0.90625,0.0639648
1709144274996491,-0.0593262,0.804688,0.0996094
1709144275000432,-0.0593262,0.804688,0.106934
1709144275004355,-0.116211,0.95874,0.0444336
1709144275008262,-0.124023,1.18213,0.0566406
1709144275012179,-0.124023,1.18213,0.0566406
1709144275016092,-0.11084,1.00171,0.0695801
1709144275020043,-0.11084,1.3728,0.0231934
1709144275023938,-0.0722656,1.3728,0.0231934
1709144275027857,-0.0195312,1.10327,0.0788574
1709144275031786,-0.0195312,1.13989,0.0466309
1709144275035745,0.0183105,1.13989,0.0466309
1709144275039683,0.0344238,1.16797,0.0432129
1709144275043566,0.0344238,1.13232,0.0839844
1709144275047509,0.0573731,1.00732,0.0839844
1709144275051401,-0.00390625,1.23047,0.0405273
1709144275055300,-0.00390625,1.20312,0.0939941
1709144275059278,-0.0231934,0.890625,0.0939941
1709144275063167,-0.0539551,1.1145,0.0405273
1709144275067126,-0.0539551,1.1145,0.0498047
1709144275071009,-0.079834,1.07471,0.0498047
1709144275074976,-0.0727539,0.98999,0.0522461
1709144275078894,-0.0727539,0.98999,0.0539551
1709144275082829,-0.0363769,1.10718,0.0539551
1709144275086734,-0.0595703,0.87207,0.0622559
1709144275090763,-0.0595703,0.87207,0.0419922
1709144275094656,-0.00708008,1.09229,0.0419922
1709144275098578,-0.032959,1.052,0.0427246
1709144275102503,-0.032959,1.052,0.0612793
1709144275106444,-0.0214844,0.960693,0.0612793
1709144275110381,-0.050293,1.15063,0.0258789
1709144275114293,-0.050293,1.15063,0.0429688
1709144275118248,-0.0244141,0.976318,0.105469
1709144275122171,-0.0339356,1.0415,0.0617676
1709144275126099,-0.0339356,1.0415,0.0617676
1709144275130026,-0.0427246,1.16235,0.0478516
1709144275133944,-0.0148926,0.895996,0.0776367
1709144275137896,-0.0148926,0.895996,0.0776367
1709144275141816,-0.0336914,1.12695,0.0268555
1709144275145755,-0.0336914,0.886719,0.0654297
1709144275149726,-0.0615234,0.886719,0.0654297
1709144275153674,-0.0397949,0.979492,0.0722656
1709144275157614,-0.0397949,1.13599,0.032959
1709144275161589,-0.0522461,1.13599,0.032959
1709144275165502,-0.0568848,0.920898,0.0405273
1709144275169423,-0.0568848,1.17578,0.0546875
1709144275173340,-0.00097656,1.17578,0.0546875
1709144275177294,-0.0327148,0.994873,0.0634766
1709144275181205,-0.0327148,0.97583,0.0529785
1709144275185170,-0.0161133,1.03833,0.0529785
1709144275189059,0.00488281,1.13159,0.0810547
1709144275192938,0.00488281,1.15649,0.0703125
1709144275196880,-0.0144043,0.968994,0.0703125
1709144275200871,-0.0146484,1.18945,0.0322266
1709144275204805,-0.0146484,1.18945,0.0917969
1709144275208734,0.0168457,1.0188,0.0917969
1709144275212633,-0.0393066,0.94873,0.0366211
1709144275216560,-0.0393066,0.94873,0.0820312
1709144275220478,0.019043,1.09546,0.0820312
1709144275224422,-0.0341797,0.897217,0.0583496
1709144275228395,-0.0341797,0.897217,0.0185547
1709144275232330,-0.0585938,1.27832,0.0185547
1709144275236266,-0.0236816,1.0376,0.0788574
1709144275240194,-0.0236816,1.0376,0.101318
1709144275244154,-0.0214844,1.08496,0.0388184
1709144275248082,-0.0454102,1.18408,0.0549316
1709144275251958,0.0170898,1.18408,0.026123
1709144275255875,0.0549316,0.950195,0.088623
1709144275259802,0.0375977,1.16162,0.0498047
1709144275263730,0.0375977,1.16162,0.0498047
1709144275267658,0.00805664,1.0354,0.0625
1709144275271559,0.00805664,1.05469,0.0559082
1709144275275504,-0.017334,1.05469,0.0559082
1709144275279384,0.0144043,1.14331,0.0793457
1709144275283354,0.0144043,0.97998,0.0522461
1709144275287262,-0.0327148,0.97998,0.0522461
1709144275291239,0.00219727,0.992188,0.0563965
1709144275295128,0.00219727,0.969482,0.0817871
1709144275299033,0.0495606,1.03198,0.0817871
1709144275302980,-0.0439453,0.880859,0.00463867
1709144275306909,-0.0439453,0.905762,0.0803223
1709144275310881,0.019043,0.968262,0.0803223
1709144275314851,-0.0163574,1.01733,0.0710449
1709144275318758,-0.0163574,1.01147,0.0297852
1709144275322667,-0.0644531,1.01147,0.0297852
1709144275326579,-0.0200195,1.13062,0.0771484
1709144275330473,-0.0200195,1.13062,0.067627
1709144275334449,-0.0268555,1.05835,0.067627
1709144275338366,-0.017334,1.11328,0.0375977
1709144275342258,-0.017334,1.11328,0.0632324
1709144275346158,0.00244141,1.09985,0.0632324
1709144275350071,0.0231934,1.03638,0.078125
1709144275354006,0.0231934,1.03638,0.0979004
1709144275357927,-0.00488281,1.10303,0.0354004
1709144275361822,-0.059082,1.0083,0.0617676
1709144275365755,0.00341797,1.0083,0.00317383
1709144275369689,0.00830078,1.00586,0.0656738
1709144275373591,0.0444336,0.984863,0.0415039
1709144275377519,-0.0180664,0.984863,0.0415039
1709144275381454,-0.0141602,0.951172,0.0737305
1709144275385386,-0.0141602,1.00244,0.0632324
1709144275389295,-0.0209961,1.00244,0.0632324
1709144275393194,-0.0336914,0.971436,0.0444336
1709144275397096,-0.0336914,1.00366,0.0703125
1709144275401045,-0.0065918,1.00366,0.0703125
1709144275404925,-0.0090332,1,0.0678711
1709144275408875,-0.0090332,1.05664,0.0605469
1709144275412759,-0.0012207,0.994141,0.0605469
1709144275416674,0.0119629,1.02295,0.0644531
1709144275420685,0.0119629,1.02222,0.0480957
1709144275424577,-0.00146484,1.02222,0.0480957
1709144275428493,-0.00292969,1.03003,0.0556641
1709144275432383,-0.00292969,1.03003,0.0537109
1709144275436318,0.00292969,1.02979,0.0537109
1709144275440233,0.00512695,1.02759,0.0605469
1709144275444143,0.00512695,1.02759,0.0532227
1709144275448036,-0.00097656,1.01294,0.0532227
1709144275451964,0.00244141,1.01465,0.0544434
1709144275455839,0.00244141,1.01465,0.059082
1709144275459758,-0.00170898,1.01807,0.059082
1709144275463662,-0.00366211,1.0188,0.0605469
1709144275467607,-0.00366211,1.0188,0.0598144
1709144275471518,0.00390625,1.01001,0.0598144
1709144275475420,0.0559082,1.00537,0.0666504
1709144275479311,-0.0065918,1.00537,0.0666504
1709144275483248,0.00390625,1.00928,0.0588379
1709144275487132,0.00390625,1.01489,0.0595703
1709144275491089,0.00756836,1.01489,0.0595703
1709144275494986,0.00463867,1.01807,0.0539551
1709144275498861,0.00463867,1.02637,0.060791
1709144275502778,0.0065918,1.02637,0.060791
1709144275506678,0.00195313,1.03174,0.0600586
1709144275510604,0.00195313,1.03247,0.0490723
1709144275514518,-0.00146484,1.03247,0.0490723
1709144275518425,0.00366211,1.01514,0.0539551
1709144275522316,0.00366211,1.01221,0.0544434
1709144275526179,0.00048828,1.01221,0.0544434
1709144275530154,0.00024414,1.01147,0.0644531
1709144275534061,0.00024414,1.01147,0.0683594
1709144275537975,0.00488281,1.00635,0.0683594
1709144275541877,-0.0012207,1.01221,0.067627
1709144275545803,-0.0012207,1.01221,0.0639648
1709144275549727,-0.00219727,1.00806,0.0639648
1709144275553648,-0.00146484,1.00977,0.0622559
1709144275557532,-0.00146484,1.00977,0.0568848
1709144275561448,-0.00195313,1.00098,0.0568848
1709144275565346,-0.00463867,1,0.0571289
1709144275569269,-0.00463867,1,0.0571289
1709144275573176,-0.00830078,0.988281,0.0581055
1709144275577088,-0.00561523,0.993164,0.0524902
1709144275581047,-0.00561523,0.993164,0.0524902
1709144275584964,0.00146484,0.998779,0.0554199
1709144275588873,0.00146484,0.995605,0.0524902
1709144275592789,-0.00244141,0.995605,0.0524902
1709144275596694,-0.0090332,1.00073,0.0615234
1709144275600628,-0.0090332,0.999512,0.064209
1709144275604556,-0.00488281,0.999512,0.064209
1709144275608485,-0.0078125,0.996582,0.0561523
1709144275612402,-0.0078125,0.997559,0.0629883
1709144275616351,-0.00683594,0.997559,0.0629883
1709144275620304,-0.00927734,0.999268,0.0573731
1709144275624235,-0.00927734,0.998291,0.0573731
1709144275628157,-0.00561523,0.998291,0.0573731
1709144275632082,-0.0090332,0.998291,0.0578613
1709144275636018,-0.0090332,0.998291,0.0563965
1709144275640020,-0.00170898,0.996826,0.0563965
1709144275643931,-0.00024414,1.00439,0.0537109
1709144275647836,-0.00024414,1.00439,0.0532227
1709144275651727,0.00097656,1.00122,0.0532227
1709144275655643,-0.00268555,1.00293,0.0546875
1709144275659555,-0.00268555,1.00293,0.0615234
1709144275663456,-0.00390625,1.00464,0.0615234
1709144275667368,-0.00537109,1.00464,0.0603027
1709144275671304,-0.00537109,1.00464,0.0603027
1709144275675196,-0.00195313,0.997559,0.0603027
1709144275679144,-0.00146484,0.998779,0.0634766
1709144275683084,-0.00146484,0.998779,0.122559
1709144275686986,-0.00146484,1.0061,0.0600586
1709144275690908,-0.0595703,1.01465,0.0541992
1709144275694851,0.00292969,1.01465,0.0541992
1709144275698733,0.00146484,1.00903,0.0585938
1709144275702655,0.00146484,1.01343,0.0559082
1709144275706534,0.00024414,1.01343,0.0559082
1709144275710455,-0.00292969,1.01001,0.0549316
1709144275714363,-0.00292969,1.00244,0.0551758
1709144275718330,-0.0012207,1.00244,0.0551758
1709144275722286,0.00268555,1.00659,0.0595703
1709144275726195,0.00268555,1.00806,0.0554199
1709144275730099,0.00073242,1.00806,0.0554199
1709144275734013,-0.00146484,1.00635,0.0600586
1709144275737920,-0.00146484,1.00708,0.0598144
1709144275741848,-0.00146484,1.00708,0.0598144
1709144275745744,-0.0012207,1.00708,0.0598144
1709144275749624,-0.0012207,1.00708,0.0598144
1709144275753554,0.00195313,1.00366,0.0598144
1709144275757462,0.00463867,1.01074,0.0622559
1709144275761362,0.00463867,1.01074,0.0544434
1709144275765279,0.00195313,1.01343,0.0544434
1709144275769175,0.00463867,1.00879,0.0581055
1709144275773100,0.00463867,1.00879,0.0568848
1709144275777002,0.00024414,1.0166,0.0568848
1709144275780872,0.00195313,1.01123,0.0600586
1709144275784763,0.00195313,1.01123,0.0600586
1709144275788681,0.00512695,1.00171,0.0563965
1709144275792568,0.00512695,1.00903,0.0603027
1709144275796474,0.00073242,1.00903,0.0603027
1709144275800385,0.00195313,1.01221,0.0595703
1709144275804278,0.00195313,1.00464,0.0634766
1709144275808178,0.00244141,1.00464,0.0634766
1709144275812095,-0.00292969,1.01636,0.0554199
1709144275816011,-0.00292969,1.0105,0.0600586
1709144275819915,-0.00024414,1.0105,0.0600586
1709144275823823,-0.0012207,1.00488,0.0603027
1709144275827793,-0.0012207,1.06006,0.0603027
1709144275831712,-0.00244141,0.997559,0.0603027
1709144275835645,-0.00097656,0.994385,0.0573731
1709144275839599,-0.00097656,0.994385,0.0461426
1709144275843500,-0.00610352,0.987549,0.0461426
1709144275847428,-0.00097656,0.994141,0.0585938
1709144275851360,-0.00097656,0.994141,0.0515137
1709144275855291,-0.00561523,0.991943,0.0515137
1709144275859192,-0.00756836,1.00122,0.0600586
1709144275863101,-0.00756836,1.00122,0.0566406
1709144275867014,-0.00390625,1.00879,0.0566406
1709144275870887,-0.00024414,1.00537,0.0588379
1709144275874823,-0.00024414,1.00537,0.0603027
1709144275878678,0.00366211,1.00122,0.0603027
1709144275882621,0.0561523,1.00586,0.0551758
1709144275886529,-0.00634766,1.00586,0.0551758
1709144275890435,0.00097656,0.997803,0.0595703
1709144275894367,0.00097656,1.00171,0.0539551
1709144275898277,-0.00488281,1.00171,0.0539551
1709144275902194,-0.00585938,1.00488,0.0515137
1709144275906116,-0.00585938,0.997314,0.0559082
1709144275910053,-0.00854492,0.997314,0.0559082
1709144275914003,-0.0126953,0.996582,0.0524902
1709144275917895,-0.0126953,0.94165,0.0524902
1709144275921800,-0.00561523,1.00415,0.0524902
1709144275925719,-0.0102539,0.994385,0.0559082
1709144275929653,-0.0102539,0.998291,0.0627441
1709144275933590,-0.0078125,0.998291,0.0627441
1709144275937564,-0.00537109,1.00366,0.0629883
1709144275941478,-0.00537109,1.00366,0.0598144
1709144275945412,-0.00097656,0.997559,0.0598144
1709144275949343,-0.00097656,0.999512,0.0600586
1709144275953265,-0.00097656,0.999512,0.0515137
1709144275957179,0.00195313,1.00342,0.0515137
1709144275961078,0.00683594,1.00977,0.060791
1709144275964995,0.00683594,1.00977,0.0598144
1709144275968900,0.00732422,1.01318,0.0598144
1709144275972800,-0.0012207,1.01147,0.0576172
1709144275976726,-0.0012207,1.01147,0.0544434
1709144275980637,0.00683594,1.01562,0.0544434
1709144275984530,0.0578613,1.00439,0.0576172
1709144275988443,-0.00463867,1.00439,0.0576172
1709144275992351,0.00097656,1.00195,0.0595703
1709144275996286,0.00097656,1.00464,0.0581055
1709144276000173,0.00366211,1.00464,0.0581055
1709144276004087,-0.00244141,0.999268,0.059082
1709144276007982,-0.00244141,1.00903,0.0600586
1709144276011900,-0.00341797,1.00903,0.0600586
1709144276015812,-0.00708008,1.00098,0.0588379
1709144276019718,-0.00708008,1.00537,0.0583496
1709144276023657,0.00170898,1.00537,0.0583496
1709144276027533,0.00830078,1.00732,0.0598144
1709144276031476,0.00830078,1.00659,0.0578613
1709144276035384,0.00415039,1.00659,0.0578613
1709144276039251,0.00610352,1.01318,0.0546875
1709144276043154,0.00610352,1.01318,0.0498047
1709144276047144,0.00854492,1.01196,0.0498047
1709144276051048,0.00268555,1.01172,0.0576172
1709144276054954,0.00268555,1.01172,0.0664062
1709144276058858,-0.00024414,1.00806,0.0664062
1709144276062816,0.00292969,0.999023,0.0573731
1709144276066735,0.00292969,0.999023,0.0566406
1709144276070627,0.00097656,1.00586,0.0566406
1709144276074554,0.00439453,1.00806,0.0576172
1709144276078460,0.00439453,1.00806,0.0612793
1709144276082370,0.00146484,1.00439,0.0612793
1709144276086288,0.0622559,1.00977,0.059082
1709144276090248,-0.00024414,1.00977,0.059082
1709144276094111,-0.00073242,1.00732,0.0588379
1709144276098001,-0.00073242,1.00171,0.0622559
1709144276101908,-0.00488281,1.00171,0.0622559
1709144276105828,-0.00610352,0.999756,0.0559082
1709144276109786,-0.00610352,0.996582,0.0571289
1709144276113739,-0.0065918,0.996582,0.0571289
1709144276117675,-0.00805664,0.98877,0.0568848
1709144276121609,-0.00805664,0.992432,0.0534668
1709144276125528,-0.0104981,0.992432,0.0534668
1709144276129471,-0.00927734,1,0.0622559
1709144276133345,-0.00927734,1.00171,0.0605469
1709144276137266,0.00073242,1.00171,0.0605469
1709144276141157,-0.00097656,1.01025,0.0524902
1709144276145070,-0.00097656,1.01025,0.0549316
1709144276148982,0.00048828,1.00757,0.0549316
1709144276152872,0.00390625,1.00269,0.0625
1709144276156854,0.00390625,1.00269,0.0515137
1709144276160744,0.00366211,1.00928,0.0515137
1709144276164658,-0.00439453,1.00073,0.0578613
1709144276168568,-0.00439453,1.00073,0.0581055
1709144276172465,-0.00610352,1.00024,0.0581055
1709144276176377,-0.0136719,1,0.0605469
1709144276180331,-0.0136719,1,0.0568848
1709144276184231,-0.00317383,0.99585,0.0568848
1709144276188174,-0.00561523,0.994629,0.0561523
1709144276192105,-0.00561523,0.994629,0.0561523
1709144276195989,-0.00708008,1.00122,0.0541992
1709144276199933,-0.00708008,0.99707,0.0578613
1709144276203804,-0.00537109,0.99707,0.0578613
1709144276207727,-0.00561523,0.996094,0.0593262
1709144276211674,-0.00561523,0.999023,0.0583496
1709144276215611,-0.00195313,0.999023,0.0583496
1709144276219546,-0.00830078,1.00439,0.0554199
1709144276223459,-0.00830078,1.00073,0.060791
1709144276227310,-0.00292969,1.00073,0.060791
1709144276231206,0.00439453,1.00269,0.0600586
1709144276235166,0.00439453,1.01318,0.0588379
1709144276239080,0.00268555,1.01318,0.0588379
1709144276242960,0.00756836,1.01538,0.0556641
1709144276246913,0.00756836,1.01538,0.0656738
1709144276250816,0.00341797,1.01074,0.0656738
1709144276254716,0.00097656,1.01123,0.060791
1709144276258610,0.00097656,1.01123,0.0622559
1709144276262492,0.00439453,1.00635,0.0622559
1709144276266508,0.00097656,0.995605,0.0559082
1709144276270439,0.00097656,0.995605,0.0598144
1709144276274344,0.00048828,1.00391,0.0598144
1709144276278291,0.0568848,0.998291,0.0568848
1709144276282191,-0.00561523,0.998291,0.0598144
1709144276286116,-0.00756836,0.996582,0.0598144
1709144276290044,-0.00561523,1.0022,0.0622559
1709144276293963,-0.00561523,1.0022,0.0576172
1709144276297872,0.00024414,1.00586,0.0576172
1709144276301779,0.00585938,1.00781,0.0532227
1709144276305696,0.00585938,1.00781,0.0532227
1709144276309603,0.0078125,1.01367,0.0563965
1709144276313529,0.0078125,1.01929,0.0598144
1709144276317442,0.0078125,1.01929,0.0598144
1709144276321348,0.00561523,1.01392,0.0576172
1709144276325252,0.00561523,1.01001,0.0583496
1709144276329119,0.00244141,1.01001,0.0583496
1709144276333023,-0.00512695,1.00806,0.0559082
1709144276336945,-0.00512695,1.00293,0.0610352
1709144276340863,-0.00439453,1.00293,0.0610352
1709144276344752,0.00073242,1.00537,0.060791
1709144276348657,0.00073242,1.00537,0.0568848
1709144276352573,0.00390625,1.00903,0.0568848
1709144276356466,0.00195313,1.0061,0.0605469
1709144276360359,0.00195313,1.0061,0.0566406
1709144276364231,0.00073242,1.01001,0.0566406
1709144276368130,-0.00610352,1.00293,0.0522461
1709144276372047,-0.00610352,1.00293,0.0615234
1709144276376016,-0.00439453,1.00195,0.0615234
1709144276379931,-0.00292969,0.992188,0.059082
1709144276383864,-0.00292969,0.992188,0.0541992
1709144276387812,-0.0119629,0.994629,0.0541992
1709144276391750,-0.0107422,0.99585,0.0563965
1709144276395732,-0.0107422,0.99585,0.0563965
1709144276399623,-0.0100098,0.994873,0.059082
1709144276403591,-0.0100098,1.00073,0.0595703
1709144276407453,-0.00561523,1.00073,0.0595703
1709144276411356,-0.00341797,1.00098,0.0646973
1709144276415313,-0.00341797,1.00879,0.0595703
1709144276419182,0.00219727,1.00879,0.0595703
1709144276423080,0.00317383,1.0127,0.060791
1709144276426988,0.00317383,1.00928,0.0583496